ax,ay,az,gx,gy,gz,toe,heel
-0.5417,0.0815,0.8779,-1.19,-2.52,2.66,8,16
-0.5661,0.1093,0.8555,-1.26,3.85,3.43,2,8
-0.5836,0.2054,0.8233,-0.49,-0.63,-1.68,7,8
-0.5958,0.001,0.8491,17.57,-5.25,0.56,5,9
-0.5485,0.0317,0.8789,4.34,-0.49,5.74,7,8
-0.551,0.1054,0.8657,4.2,5.32,2.73,6,9
-0.569,0.0425,0.8672,6.23,10.5,3.71,5,12
-0.6046,0.0503,0.8184,5.88,9.1,9.03,6,5
-0.568,0.1298,0.852,-7.28,10.08,35.42,7,16
-0.6364,0.0107,0.8369,-43.61,15.75,62.58,8,14
-0.5998,0.1015,0.8555,-14,17.57,49.84,4,10
-0.6598,0.0171,0.8262,10.57,8.05,29.19,3,7
-0.5583,0.3196,0.7471,26.67,-4.76,6.16,5,9
-0.5895,0.2967,0.7227,10.57,-13.3,-9.31,14,11
-0.6115,0.2733,0.7452,-14.35,-20.16,-14.35,7,7
-0.5788,0.1581,0.8379,-30.59,-21.77,-17.01,6,11
-0.5358,0.0888,0.8955,-29.33,-13.23,-18.83,8,16
-0.5597,0.0844,0.8921,1.61,-5.11,-3.29,7,11
-0.5617,0.0913,0.8506,4.76,0.77,2.38,0,7
-0.6129,0.0839,0.8125,-0.98,-4.2,-1.05,6,9
-0.59,0.0737,0.8481,-3.43,-8.96,0.42,4,11
-0.5675,0.0839,0.856,-2.45,-6.93,1.26,5,7
-0.57,0.1098,0.8438,-1.4,-4.9,1.47,12,6
-0.6017,0.1093,0.8169,-5.46,-10.78,-0.28,6,10
-0.5119,0.0917,0.8813,-10.15,-14.28,-2.03,7,8
-0.5822,0.0503,0.8555,-2.17,-3.71,-0.7,8,24
-0.5534,0.1176,0.8608,0.98,-3.43,1.12,6,53
-0.5475,0.1435,0.8423,1.33,-2.94,-1.33,7,79
-0.5871,0.0771,0.8618,-3.85,3.29,-7.84,6,80
-0.5749,0.0547,0.8516,2.03,-0.14,-5.88,3,41
-0.5348,0.0996,0.8901,5.32,4.9,-4.48,4,18
-0.509,0.124,0.9414,7.07,14.7,-4.9,4,11
-0.5466,0.1523,0.9008,-16.94,27.93,-7.14,5,14
-0.6134,0.0415,0.8423,-5.18,31.08,-4.62,6,24
-0.7359,0.0283,0.7042,3.92,26.25,-0.91,7,11
-0.7271,0.0322,0.6798,2.03,-8.68,1.96,8,13
-0.7442,-0.0078,0.6754,5.46,-42.14,9.31,8,15
-0.4192,0.1566,0.9682,10.64,-39.41,6.37,7,10
-0.3919,0.0688,1.0824,-0.77,25.48,-8.96,7,9
-0.6056,0.1274,0.8706,-11.55,52.5,-4.62,10,8
-0.7091,-0.1083,0.5758,22.05,12.25,-5.32,8,3
-0.7749,0.0561,0.5197,7.7,-28.7,-3.43,5,8
-0.9428,-0.3621,0.8364,-33.81,-73.22,11.69,6,6
-0.2923,0.0351,1.2058,1.96,7.42,-7.35,5,14
-0.5422,0.1552,0.9667,-10.08,60.62,-5.53,8,9
-0.754,-0.1874,0.5563,28.91,26.74,-3.57,8,8
-0.7066,0.0488,0.4738,15.19,-14.63,-2.73,8,4
-0.7013,0.4431,0.7227,-68.32,-33.88,-7.42,3,3
-0.1484,0.9848,1.3054,-11.69,5.46,-1.05,5,4
-0.6749,0.04,0.9496,7.28,53.41,-4.62,0,6
-1.1009,0.0708,0.4792,52.5,14.63,3.01,8,7
-0.7569,0.2674,0.4099,-29.82,-51.8,2.8,5,10
0.0205,-0.001,0.1596,-21,39.48,27.02,2,13
-1.018,-2.4463,0.4709,98.98,-36.54,23.8,8,3
-0.4187,-0.5714,1.038,-44.17,27.16,-12.67,9,9
-0.9414,-0.1635,0.7257,4.06,33.74,-4.97,0,3
-0.753,0.1854,0.527,29.61,-8.96,0.42,9,12
-0.5187,0.0561,0.4089,17.78,-42.21,-21.07,9,10
-1.259,-1.2132,1.2678,-99.33,-88.97,21.77,6,10
-0.4207,-0.3826,1.0614,-23.8,8.68,-8.26,8,11
-0.6608,0.1967,0.9233,-9.87,62.51,-7.56,7,6
-0.7886,-0.1669,0.509,53.41,15.68,9.94,8,3
-0.6207,0.2425,0.5153,-60.06,-59.36,14.35,12,10
0.002,-0.0503,0.2777,-4.34,9.1,21.84,7,8
-2.2843,-0.408,1.5636,87.71,-58.66,11.2,8,5
-0.5383,-0.0708,1.0921,11.13,32.55,-9.45,2,8
-0.7876,0.1244,0.8228,-17.5,54.46,-3.57,5,8
-0.7178,-0.0932,0.5397,13.51,9.59,13.65,0,6
-0.4856,0.1825,0.4699,-17.78,-50.05,8.47,3,7
-0.2518,-0.4153,0.5212,55.44,-96.25,32.83,0,10
-0.386,0.4846,1.218,-27.65,-9.31,-8.12,4,9
-0.5026,0.0517,1.0326,-3.08,61.11,-8.75,2,6
-0.7793,0.0595,0.6525,-17.92,53.76,-11.34,6,12
-0.7091,0.0264,0.508,19.67,14,-2.66,8,0
-0.6202,0.2391,0.3899,24.99,-35.98,7.35,8,10
-1.2434,-0.7471,1.1097,-44.66,-68.81,27.65,6,6
-0.4538,-0.2298,1.0746,2.24,-8.75,-3.78,6,3
-0.5958,0.1767,0.9443,-5.18,45.15,-2.38,5,6
-0.7788,-0.0566,0.5832,16.59,12.88,-1.12,6,12
-0.5719,0.0659,0.425,13.09,-32.62,-5.11,4,10
-1.4259,-0.813,1.3581,-99.75,-48.23,21.77,6,0
-0.5002,-0.3318,1.0731,-13.58,-1.47,-6.09,5,7
-0.5651,0.1576,0.9755,-8.82,54.53,-3.43,10,10
-0.8852,0.0005,0.6456,-14.84,30.94,-6.79,4,7
-0.751,-0.1923,0.5061,19.11,-21.91,4.27,9,4
-0.1728,0.0478,0.3396,6.86,-56.35,-10.57,5,8
-0.795,-0.2289,1.4006,18.06,-63,23.17,8,9
-0.3021,-0.0844,1.2346,-0.14,33.04,-14.07,12,3
-0.6852,0.1405,0.8721,-9.8,78.61,-10.15,5,5
-0.734,-0.0215,0.5158,16.59,32.34,-13.02,3,7
-0.6852,-0.0766,0.4138,4.55,-19.18,-11.06,4,8
-0.7881,0.0927,0.3919,2.66,-69.23,5.46,6,5
-0.6632,0.7676,1.139,54.11,-99.47,27.02,0,2
-0.164,0.2684,1.3474,-12.95,10.71,-10.99,7,8
-0.5636,-0.0151,0.9511,-9.45,78.26,-2.17,3,7
-0.8638,-0.243,0.6222,-19.46,45.57,5.46,9,4
-0.7027,-0.0156,0.3958,5.11,-18.69,18.48,6,4
-0.6939,0.7471,0.4392,-44.38,-43.4,18.69,0,7
-0.6261,1.2571,1.4708,181.3,-40.11,-1.96,0,8
-0.4182,0.1474,1.1361,-1.33,67.69,-11.83,5,5
-0.8721,0.0805,0.6549,-4.27,55.93,-15.4,8,8
-0.8198,0.1591,0.4568,16.38,2.59,-13.23,6,9
-0.6739,0.3196,0.3904,23.73,-51.17,-11.62,8,2
-1.5382,-1.096,1.0316,-70,-131.46,28.56,5,8
-0.1396,0.0874,1.3776,3.78,-16.8,-10.43,9,0
-0.5124,0.0961,1.0502,-7.35,73.64,-8.47,6,4
-0.9516,-0.0747,0.6568,-16.38,57.26,-6.58,3,9
-0.7754,-0.0215,0.3924,48.3,-6.3,1.12,9,6
-0.6383,0.469,0.306,13.16,-58.03,-6.51,7,2
-0.1718,-1.688,0.669,-7.77,-114.87,11.13,9,5
-0.1391,-0.3841,1.2073,-41.37,28.7,-11.48,4,11
-0.6515,0.1176,0.876,-17.85,84.49,-9.1,6,8
-0.7501,-0.0991,0.5085,30.87,35.98,-7.35,9,7
-0.6573,0.0356,0.367,38.78,-19.46,1.54,7,1
-0.7505,0.6949,0.324,-8.96,-58.59,1.19,10,7
0.5153,-1.4669,0.5778,131.46,-70.21,17.22,0,7
-0.0869,-0.2738,1.221,6.86,11.2,-10.78,6,7
-0.5402,0.041,0.934,-16.45,78.4,-2.45,9,8
-0.7857,-0.101,0.5436,20.09,41.02,6.3,7,5
-0.6998,-0.1562,0.3865,9.8,-34.65,16.38,9,5
-0.6895,0.5675,0.345,-31.85,-52.57,14.7,6,10
-0.1088,-0.1083,1.3479,174.09,-33.46,10.57,7,6
-0.4856,0.0132,1.1917,4.97,51.17,-12.81,7,7
-0.8721,0.0551,0.7735,-16.94,73.08,-5.81,4,12
-0.7183,0.121,0.4665,0.98,24.64,-1.96,7,5
-0.612,0.0673,0.3723,9.94,-37.31,5.32,8,2
-1.0424,-0.2347,0.995,-61.46,-70.84,20.37,9,7
-0.4314,-0.0142,1.219,-45.22,-44.94,0.56,10,10
-0.4646,0.0683,1.0985,0.35,44.03,-4.55,9,8
-0.7784,0.1459,0.7266,-17.08,53.55,-3.57,3,1
-0.7393,0.0439,0.4987,15.05,6.51,2.8,3,11
-0.7579,0.1649,0.3958,14.28,-43.4,5.74,3,10
-0.02,-0.5026,0.7691,50.26,-50.89,4.9,6,8
-0.344,0.161,1.2044,7.35,21.63,-7.91,0,8
-0.6486,0.1288,0.893,-12.39,70,-2.17,3,0
-0.792,-0.0883,0.5124,19.04,29.75,-2.24,6,5
-0.6622,-0.1322,0.3933,19.88,-26.32,-3.36,5,1
-0.9628,0.7471,0.4343,-66.92,-48.3,-0.56,0,2
-0.3196,0.5324,1.3186,-85.47,-18.62,-0.77,7,9
-0.5207,0.0532,1.0126,-2.73,46.69,-1.12,7,10
-0.8228,0.0961,0.6525,-15.26,34.58,-6.72,7,8
-0.733,-0.0098,0.4236,16.45,-12.32,-1.89,9,8
-0.7593,0.3148,0.4856,-12.74,-58.59,-2.45,5,9
-0.5119,0.7422,1.2122,26.95,-69.23,12.74,9,5
-0.3538,0.1098,1.1907,-15.05,24.78,-6.72,10,6
-0.632,0.1171,0.8779,-4.62,69.51,-3.29,6,3
-0.8394,-0.1879,0.5431,1.26,35.98,0.84,1,5
-0.673,-0.0805,0.3855,17.01,-24.5,10.15,5,6
-0.8965,0.8901,0.4387,-52.71,-59.71,1.12,5,7
-0.3928,1.2625,1.505,89.32,-40.18,-3.29,6,4
-0.4524,0.1547,1.1136,2.52,67.55,-4.41,0,3
-0.9018,0.0132,0.6954,-12.18,65.8,-4.13,6,5
-0.7481,0.0644,0.4319,-6.72,20.79,-3.5,4,3
-0.7305,0.1318,0.3514,20.86,-42.42,4.27,8,9
-0.9584,-0.3221,0.8496,-17.22,-85.05,15.33,5,8
-0.3094,0.0195,1.2468,-13.93,-51.17,3.92,3,5
-0.4255,-0.0034,1.1039,0.91,41.16,-5.11,8,6
-0.7588,0.1547,0.7505,-14.77,55.79,-0.35,6,6
-0.7598,0.1196,0.4529,8.82,-1.54,8.19,7,8
-0.7462,0.1074,0.4324,0.98,-52.22,13.02,7,8
-0.3982,-0.0542,1.0643,79.03,-61.81,11.27,4,5
-0.3333,0.2538,1.1858,-8.26,12.25,-8.75,6,6
-0.6393,0.0566,0.8745,2.31,47.88,-0.7,5,8
-0.7584,-0.0917,0.5827,-2.73,14.14,3.99,7,8
-0.7398,0.1415,0.4485,-5.53,-26.88,8.33,8,9
-0.4982,0.0464,0.896,50.82,-45.36,6.51,5,9
-0.3572,0.284,1.1483,-2.03,8.96,-6.09,8,8
-0.6285,0.0429,0.855,3.92,42,-2.24,6,6
-0.7281,-0.0595,0.5871,8.05,12.04,0.35,3,3
-0.734,0.1337,0.4929,-7.21,-22.19,2.8,8,7
-0.6315,0.286,0.956,30.38,-35.42,5.67,8,0
-0.4602,0.2762,1.0721,-11.41,8.12,-2.66,8,7
-0.6564,0.0171,0.8369,4.83,32.76,-0.84,6,8
-0.7515,-0.0083,0.6403,-3.22,12.04,1.54,9,8
-0.753,0.1152,0.5832,-9.87,-21.21,5.04,7,3
-0.5832,0.2094,0.9945,2.17,-37.24,8.47,4,6
-0.4753,0.1401,1.0536,-6.09,4.97,-4.06,1,10
-0.6378,0.0508,0.8721,5.25,27.65,-3.71,9,6
-0.7374,0.0625,0.6237,-2.94,4.34,1.12,6,2
-0.7706,-0.0317,0.6564,-5.95,-27.09,8.47,0,7
-0.6237,0.1298,0.8164,7.98,-45.29,12.67,8,0
-0.3655,0.3597,1.1219,-3.43,-5.88,-2.87,8,5
-0.5949,0.0102,0.8955,-0.42,35.7,-4.97,4,5
-0.792,0.1069,0.5939,12.81,10.08,4.55,3,7
-0.6915,0.3192,0.5505,-11.34,-28.42,12.74,7,3
-0.4738,0.6939,1.0892,9.87,-29.82,5.32,4,7
-0.4978,0.0576,1.036,-14.21,35.49,-5.6,0,9
-0.9121,-0.1708,0.731,19.6,36.82,2.87,7,12
-0.671,0.1181,0.4651,8.82,-5.81,9.73,6,11
-0.8179,0.5973,0.7857,-80.64,-29.68,8.96,16,8
-0.6603,-0.1078,0.9091,-16.45,47.81,-8.75,8,3
-0.8086,0.0381,0.5353,-1.96,-56.21,6.37,7,0
-0.5666,0.2464,0.9038,5.25,-71.4,11.34,8,10
-0.3138,0.0376,1.2307,-13.65,28.7,-8.96,8,9
-0.5334,0.0732,0.9726,-2.1,44.38,-3.43,1,12
-0.7056,0.1313,0.6754,4.76,21.56,-5.25,8,7
-0.7608,0.0498,0.6983,10.99,-65.31,6.37,16,6
-0.3089,0.205,1.1878,12.74,-39.34,4.97,8,3
-0.5002,0.1942,0.9843,-4.76,34.72,-2.38,2,3
-0.6671,0.0576,0.773,-3.5,36.82,-3.15,7,9
-0.7486,0.0712,0.5885,-5.81,7.07,0,6,6
-0.7032,0.1127,0.6461,4.97,-30.52,3.78,4,5
-0.4099,0.1742,1.1043,1.26,-8.12,1.47,3,9
-0.5627,0.1259,0.9028,-9.8,32.9,-3.57,8,9
-0.6769,0.0551,0.7725,0.63,31.64,-5.81,5,6
-0.7462,0.0551,0.6046,-1.89,8.4,-3.43,7,9
-0.7291,0.0234,0.5929,3.43,-27.79,2.66,3,8
-0.4997,0.1684,1.0668,0.56,-7.35,-0.91,7,4
-0.5734,0.1064,0.9287,-7.07,35.56,-4.48,8,6
-0.7505,0.0473,0.7071,3.5,35.07,-7.21,8,7
-0.7422,0.0468,0.5744,3.99,6.79,-6.23,8,5
-0.8233,0.0234,0.4758,-2.94,-34.58,-0.98,8,8
-0.7871,0.0166,0.712,22.47,-76.79,10.64,5,5
-0.2899,0.3714,1.2507,9.87,-41.37,4.13,5,7
-0.467,0.1103,1.0526,-6.44,29.96,-4.27,6,7
-0.6593,0.081,0.7808,-4.9,45.78,-4.06,0,9
-0.7662,0.0342,0.5846,-7,18.48,-5.39,3,5
-0.8067,-0.0264,0.5295,0.77,-25.69,3.29,9,6
-0.7198,0.0166,0.6315,11.06,-66.64,13.37,4,8
-0.2142,0.3362,1.3498,6.37,-22.33,-1.96,8,4
-0.4968,0.0639,1.0287,-10.71,54.53,-5.6,6,8
-0.7344,0.0547,0.7383,-2.45,60.55,-8.61,14,6
-0.7749,0.0117,0.487,6.23,17.99,-7.07,8,7
-0.8101,-0.0024,0.3689,0.98,-36.96,1.19,12,6
-0.5871,0.2708,0.976,24.15,-67.69,10.01,8,2
-0.3821,0.1864,1.2293,-9.66,23.38,-5.6,8,6
-0.6329,0.0576,0.8789,-1.4,63.21,-5.6,9,10
-0.8228,-0.0307,0.5592,6.65,32.34,-4.34,1,11
-0.7642,-0.0166,0.3802,13.16,-19.74,4.34,7,7
-0.7813,0.1684,0.3055,-13.86,-71.47,4.55,4,7
-0.5397,0.7218,1.3493,24.99,-97.23,12.11,7,4
-0.2562,0.1737,1.3474,-21.63,23.66,-6.65,7,8
-0.6022,0.0254,0.9306,-5.18,78.19,-3.01,0,8
-0.8325,0.0464,0.5871,-7.7,48.51,-10.57,2,12
-0.7618,-0.0063,0.3782,20.72,-3.5,7.49,7,1
-0.7383,0.1903,0.3079,-22.4,-54.88,16.45,0,10
-0.49,-0.0356,1.0873,94.5,-72.1,33.67,8,8
-0.2499,0.3811,1.32,5.25,17.92,-1.05,10,7
-0.7008,0.1176,0.9794,-4.69,83.93,-6.44,1,8
-0.8755,-0.0712,0.4792,40.74,45.43,16.45,4,3
-0.9736,0.6046,0.2435,-9.45,-2.17,52.99,8,8
-0.3152,-0.2123,0.2499,-82.25,-23.38,45.15,2,7
-1.706,1.4728,1.5548,-183.75,-102.48,28.56,7,8
-0.7037,1.2259,1.0243,289.17,-108.15,60.06,8,7
0.1674,-0.4782,1.3742,0,9.87,23.8,8,5
-0.5187,0.2894,1.0838,-53.55,85.05,12.25,2,0
-1.178,-0.2821,0.8032,-36.89,71.54,20.3,3,0
-1.0199,0.246,0.365,56.21,20.58,19.81,7,5
-0.4978,-0.1142,0.3357,-8.68,-26.67,-45.22,3,4
-0.3514,0.0839,0.3138,26.88,-18.34,-68.6,7,6
0.2645,-0.8374,0.9862,24.22,-50.47,13.51,6,8
-0.2225,-0.1854,1.3137,1.33,-2.52,-1.12,6,5
-0.4821,0.0991,1.1366,-4.97,87.71,-8.05,2,7
-0.9267,-0.3167,0.6451,8.68,66.71,-19.04,8,4
-0.792,0.2133,0.2098,108.43,15.4,-3.78,8,2
-0.5344,0.1923,0.3523,-49.98,-63.42,-25.41,8,7
-0.1327,-0.1132,0.2791,19.81,-34.37,-25.06,2,4
-3.5595,0.1074,1.7397,-228.55,-188.44,1.12,9,7
-0.5119,1.2688,1.1707,69.44,-137.27,1.54,8,3
-0.5646,0.2816,0.9365,42.21,29.61,-3.85,12,6
-0.6183,0.1732,0.9809,17.71,100.8,-30.8,5,7
-1.0097,-0.3436,0.5651,-1.05,64.82,-41.79,7,5
-0.9745,0.3377,0.4734,69.09,-21.7,-11.34,5,3
-0.2098,0.0498,0.3558,-2.66,-21.91,-2.31,8,4
-0.2572,0.1279,0.4128,14.63,-2.03,19.18,8,10
0.1571,-1.9281,0.285,110.11,-68.74,5.18,3,2
0.589,-0.1059,1.8222,-74.69,-80.85,19.6,8,15
-0.5334,0.0937,0.8896,-53.13,30.38,-0.21,5,4
-0.6237,0.3748,0.8345,-18.27,32.83,0.35,5,5
-0.7413,-0.059,0.6525,-12.18,3.99,9.17,3,12
-0.7354,0.0503,0.7408,6.58,-30.31,16.52,16,7
-0.3011,0.3387,1.1043,-11.9,-32.69,4.55,8,6
-0.5724,0.1571,0.8433,5.88,5.6,1.47,9,1
-0.6046,0.0747,0.8306,4.48,0.91,1.47,5,8
-0.6359,0.1254,0.8223,0.49,-9.24,1.12,0,8
-0.5485,0.103,0.8545,2.45,-3.57,1.54,3,10
-0.5641,0.1064,0.8472,-1.82,-0.98,0.84,6,0
-0.5641,0.0849,0.8428,-0.63,-3.15,0.91,8,6
-0.5632,0.1015,0.8545,-0.49,-2.38,1.54,4,3
-0.5734,0.1064,0.8501,-1.54,-1.47,0.91,4,8
-0.5724,0.102,0.852,-0.42,-1.82,0.98,4,10
-0.5612,0.0966,0.8506,0.42,-2.38,1.19,0,8
-0.5675,0.1191,0.8447,-2.38,-1.61,-0.07,7,7
-0.571,0.1054,0.8467,-1.96,-2.1,0.07,8,8
-0.5661,0.1196,0.8442,-3.08,-2.8,-1.05,3,12
-0.5744,0.0874,0.8438,0.77,-3.99,-0.21,9,6
-0.5612,0.0825,0.8501,0.98,-4.27,0.28,3,9
-0.55,0.124,0.8725,3.29,-2.66,0.49,8,16
-0.6388,0.1249,0.9013,11.55,-15.4,3.64,0,31
-0.3943,0.0903,0.854,15.89,-12.32,2.73,0,54
-0.7388,0.0854,0.8877,16.38,-19.46,6.44,4,84
-0.4402,0.1786,0.8257,7.98,-12.95,6.3,6,115
-0.429,0.1196,0.8291,2.87,-4.34,3.36,7,141
-0.3118,0.1869,0.7969,-4.13,17.99,-3.5,10,138
-0.3802,0.185,0.8076,-35.35,38.78,-8.19,10,77
-1.0941,-0.2328,0.852,-38.99,4.55,-4.55,7,22
-0.4494,0.1,0.8843,2.8,18.76,-2.17,1,16
-0.6217,0.0615,0.8164,-2.73,18.34,-3.92,9,16
-0.6681,0.04,0.754,1.68,6.44,0.28,8,13
-0.6778,0.0542,0.7286,4.48,-13.58,4.06,10,12
-0.5246,0.1342,0.8984,3.01,-18.41,4.06,3,10
-0.4412,0.2011,1.0258,-3.57,12.39,-5.46,4,12
-0.6012,0.0454,0.8682,0.91,36.47,-6.51,8,15
-0.7637,0.0986,0.5485,24.22,14.63,-5.39,4,12
-0.7793,0.0127,0.5612,15.54,-31.29,-1.61,4,14
-0.6271,0.0088,0.7584,1.05,-58.59,7.42,9,10
-0.3528,0.0761,1.1912,-9.03,-1.12,-6.79,3,10
-0.4973,0.0586,1.0292,-12.11,44.52,-4.13,6,7
-0.8423,-0.0293,0.6051,18.76,27.65,1.54,4,8
-0.7559,0.0342,0.486,11.27,-22.96,2.45,6,6
-0.4377,0.1459,1.0038,2.59,-37.1,1.19,7,13
-0.407,0.1054,1.1605,-6.3,29.19,-8.4,6,7
-0.7408,0.141,0.7701,12.81,49.14,-2.94,6,1
-0.6817,0.2089,0.4992,52.08,8.68,8.68,10,16
-0.5705,0.2752,0.3504,-4.06,-26.25,22.26,8,4
-1.1136,-0.8223,0.8926,-27.65,-66.5,9.17,5,16
-0.4826,-0.1879,1.1522,9.87,-8.47,-1.33,5,10
-0.6403,0.161,0.8028,-7.14,27.79,-0.28,0,8
-0.5958,0.2011,0.7818,-8.68,19.67,-5.25,8,16
-0.6422,0.101,0.8032,-15.33,18.97,-3.5,5,7
-0.6778,0.0112,0.7632,5.6,17.5,-0.98,6,6
-0.7037,0.0966,0.6856,5.46,5.53,0.63,8,6
-0.7305,0.0703,0.631,-1.96,-16.24,3.5,8,3
-0.6305,0.0595,0.7286,0.49,-34.93,7.91,8,4
-0.4914,0.2289,1.0463,-2.38,-9.03,-2.17,7,8
-0.6032,0.0468,0.896,0.77,24.71,-3.43,6,12
-0.7462,0.0908,0.5919,5.39,11.2,0.63,3,4
-0.7745,0.0342,0.5685,1.19,-29.54,4.76,11,14
-0.7222,0.0381,0.6705,-1.47,-64.33,13.51,6,10
-0.3475,0.2904,1.1829,-5.53,-36.68,0.7,3,10
-0.5124,0.02,0.9721,-2.31,15.12,0.07,7,0
-0.6905,0.0966,0.7222,11.06,18.41,1.68,4,4
-0.7086,0.1186,0.6612,2.17,-10.99,3.64,6,10
-0.4919,0.1205,0.8003,4.55,-26.74,2.8,5,3
-0.4602,0.06,1.0277,-2.87,11.41,-3.85,16,8
-0.6134,0.1279,0.8608,-12.67,31.29,-1.61,9,4
-0.7154,0.0747,0.6925,0.42,18.41,-3.29,5,9
-0.7623,0.0171,0.6076,4.62,-20.09,-2.24,10,5
-0.5305,0.1342,0.8418,2.38,-41.16,5.18,6,10
-0.3875,0.2133,1.138,-10.92,13.44,-9.45,10,13
-0.6627,0.1479,0.8003,35.14,34.79,-30.94,6,9
-0.7662,0.0586,0.6378,55.3,2.45,-42.49,9,10
-0.673,0.2796,0.5402,32.76,-33.81,-48.3,8,3
-0.5144,0.1688,1.1531,10.5,-22.61,-14.63,8,1
-0.4807,0.3426,1.056,3.92,36.05,9.66,7,8
-0.8926,-0.1366,0.8394,-15.19,43.82,10.15,9,8
-0.8272,0.246,0.4304,18.9,12.81,14.77,8,4
-0.3396,0.5226,0.4729,-19.88,11.41,32.34,6,12
-0.6705,-0.8335,1.0912,-31.99,-5.88,84.35,3,7
-0.6193,-0.2552,0.9775,-128.38,34.58,143.78,9,8
-0.7154,0.0473,0.7383,-133.56,42.07,150.01,3,6
-0.7252,0.1479,0.5846,-129.99,11.34,120.54,7,7
-0.65,0.3231,0.6017,-104.65,-29.19,91.28,7,9
-0.466,1.0941,1.0756,20.79,-34.72,12.25,7,2
-0.569,-0.447,1.1268,-44.38,4.2,-62.02,5,7
-0.6476,0.303,0.8003,22.61,28.21,-92.82,3,9
-0.7715,0.2098,0.6715,95.55,6.23,-113.82,7,7
-0.7115,0.0049,0.4831,108.01,-45.5,-108.92,6,7
-0.8169,-0.042,0.732,111.16,-88.06,-96.11,5,7
-0.0913,-0.0166,1.4391,5.39,-33.18,-33.39,6,6
-0.3972,0.0415,1.1248,33.74,74.06,20.44,10,8
-0.7808,0.3338,0.8213,-23.31,85.96,10.36,8,7
-0.8935,-0.0839,0.386,-5.67,25.13,15.54,4,8
-0.7076,0.1,0.2094,-17.36,-30.1,19.32,2,8
-0.7462,-0.0605,0.7003,-57.54,-66.71,48.58,10,8
-0.3177,0.6159,1.1873,-64.05,-67.83,41.23,8,8
-0.2552,0.4236,1.1995,-3.08,18.41,-3.85,10,0
-0.6427,-0.0166,0.8213,-0.14,48.02,-6.09,12,6
-0.7574,0.0864,0.55,-4.83,14.14,-2.73,5,3
-0.7154,0.1488,0.651,-3.01,-30.66,-12.95,4,5
-0.5539,0.1488,0.9599,10.01,-24.64,-43.68,10,9
-0.5427,0.1659,0.9409,53.13,9.1,-63.63,12,5
-0.6773,0.1601,0.7398,70,10.36,-69.65,9,8
-0.692,0.042,0.6412,60.27,-15.54,-61.18,12,5
-0.6451,0.0102,0.8159,32.2,-34.86,-23.38,5,9
-0.5353,-0.2372,1.0014,51.94,-4.55,37.94,4,3
-0.5183,-0.3953,0.9614,-70.77,39.48,79.59,5,8
-0.7198,0.0098,0.7208,-84.91,38.5,93.31,5,4
-0.7462,0.022,0.5461,-91.56,1.75,94.5,11,8
-0.7432,0.1737,0.6256,-53.27,-37.03,81.13,14,6
-0.3587,0.4329,1.0858,10.85,-17.78,1.54,8,4
-0.4621,-0.1991,1.078,-6.37,45.15,-21.28,5,8
-0.7198,0.1147,0.7896,15.47,66.78,-18.83,3,7
-0.812,0.0366,0.4197,25.69,11.83,-26.39,8,7
-0.7447,0.0869,0.3343,32.55,-39.83,-29.75,0,6
-1.2429,-0.385,0.632,14.49,-108.64,-23.87,8,3
-0.1498,0.2372,1.4767,-16.03,-29.33,-14.14,9,0
-0.4978,0.162,1.12,-6.02,70.49,-9.52,10,5
-0.915,0.1484,0.6739,2.66,63.49,-21.35,5,6
-0.7462,0.0273,0.4036,22.26,1.61,-27.86,6,4
-0.6812,0.0883,0.2323,59.29,-54.04,-32.13,5,6
-0.6202,-0.4172,0.8242,77.63,-97.93,-5.88,14,8
-0.1806,0.1171,1.3776,53.55,-33.53,20.65,3,9
-0.4036,0.3416,1.036,-26.53,58.52,13.09,5,3
-0.7662,0.0844,0.711,-25.83,60.9,27.58,8,6
-0.7779,-0.0102,0.4719,-48.65,9.59,43.68,3,7
-0.9389,-0.0517,0.5129,-18.48,-47.46,54.32,7,4
-0.2943,0.854,1.2854,12.39,-40.88,-22.89,5,9
-0.5026,-0.2826,1.0429,-2.59,54.32,-46.69,5,7
-0.792,-0.0566,0.6686,20.65,56.56,-63.07,7,13
-0.7837,0.0683,0.4446,53.2,11.2,-65.24,5,4
-0.7945,-0.1225,0.3948,61.11,-42.84,-52.99,7,6
-0.8613,-0.2704,0.5944,67.48,-87.29,-14.14,5,9
-0.3938,-0.4436,1.2649,16.94,-69.44,22.19,6,6
-0.3675,0.142,1.1878,-1.12,33.39,4.13,5,8
-0.6232,0.0063,0.8369,-23.1,64.05,14.84,8,8
-0.8052,0.0122,0.5988,-35,36.12,35.63,6,10
-0.7701,0.0078,0.4412,-49.84,-8.54,53.13,9,5
-0.8467,0.1972,0.6651,-18.41,-52.99,57.26,5,9
-0.3499,0.3997,1.2073,5.95,-23.24,11.62,0,8
-0.5212,-0.082,1.0228,-10.5,37.24,-11.55,3,1
-0.7257,-0.0015,0.7413,14.91,51.03,-3.78,7,3
-0.7764,0.0566,0.4909,-6.02,5.04,1.61,6,7
-0.8257,0.0249,0.5241,-16.87,-51.1,15.12,7,7
-0.5339,0.0761,1.0253,-10.22,-43.47,28.07,8,9
-0.4202,0.2308,1.0873,-17.43,16.31,16.45,11,4
-0.6486,0.0878,0.8579,-16.24,46.97,16.38,7,8
-0.7964,-0.1283,0.5339,-3.92,17.85,30.73,6,12
-0.7603,0.2289,0.4821,-39.27,-20.93,35.63,12,4
-0.5051,-0.4148,0.8926,-12.53,-33.39,27.37,10,3
-0.5144,0.1059,1.0077,1.33,11.2,-7.35,8,6
-0.6739,0.0503,0.8233,9.8,36.33,-4.9,7,8
-0.7701,0.0639,0.5348,21.77,9.38,7.91,9,7
-0.7574,0.1586,0.5207,-19.81,-30.24,11.2,0,8
-0.5876,-0.5817,0.9331,-4.62,-43.75,20.02,7,4
-0.4753,0.0781,1.0687,-7.7,15.89,1.68,0,5
-0.6637,-0.019,0.8154,0.28,40.32,-2.59,7,9
-0.7813,0.0737,0.5187,15.96,5.81,8.61,3,5
-0.7764,0.2245,0.5168,-22.61,-35.14,7.7,5,4
-0.4372,0.1503,0.9648,48.65,-40.53,-6.44,7,5
-0.4612,0.2381,1.0795,-1.82,8.75,-9.17,8,8
-0.7042,0.0849,0.693,12.53,22.82,-5.04,12,0
-0.7349,0.0776,0.5851,2.66,-4.48,-2.94,0,10
-0.5973,0.0639,0.7647,0.77,-25.34,1.47,6,4
-0.4963,0.2469,1.0917,-7.56,10.5,-10.08,7,6
-0.6554,0.0405,0.8574,-4.9,51.03,-8.47,6,6
-0.7808,0.0498,0.5417,10.57,21,-12.11,1,4
-0.793,0.0234,0.3558,24.78,-23.52,-11.55,8,8
-0.8491,-0.2679,0.8081,-8.05,-60.34,-12.25,7,7
-0.4724,-0.0752,1.2,-7.21,-4.62,-10.01,8,8
-0.5993,0.1947,0.9604,1.61,45.64,-9.87,9,5
-0.8374,0.1503,0.5461,25.48,25.76,-27.44,7,0
-0.7296,0.0327,0.4002,47.11,-19.32,-38.57,12,5
-0.6793,0.2084,0.3884,46.2,-61.88,-40.46,8,0
-0.5109,0.5246,1.199,35.7,-72.03,-24.92,3,12
-0.3562,0.2704,1.2542,7.63,18.55,9.45,7,4
-0.6744,0.123,0.8345,1.19,52.36,5.46,8,8
-0.8194,0.0639,0.508,-6.58,18.83,2.52,6,10
-0.7037,0.121,0.426,-7.7,-21.98,13.58,6,10
-0.6998,-0.5841,0.6407,9.73,-54.95,41.3,6,5
-0.4309,-0.0156,1.1512,-32.27,-35.35,42.7,6,7
-0.4021,0.181,1.1322,-32.62,29.33,20.23,5,6
-0.6627,0.0786,0.8316,-23.87,54.32,14.21,7,7
-0.8359,0.1137,0.5309,-22.89,21.77,17.57,3,7
-0.7354,0.1113,0.4075,-22.89,-21.98,24.99,8,6
-0.7188,0.3894,0.6451,13.65,-65.59,17.64,8,2
-0.3694,0.3543,1.283,-30.87,-3.43,-26.25,5,6
-0.5836,0.0176,0.9433,15.61,60.48,-26.46,7,4
-0.8955,0.0673,0.5895,29.26,41.37,-42.28,0,6
-0.7379,0.0283,0.3733,50.89,-8.19,-46.2,3,8
-0.734,0.0122,0.4011,53.06,-60.55,-40.11,10,8
-0.6041,0.5148,1.018,44.45,-97.58,-17.36,8,3
-0.3182,0.2879,1.3488,25.83,-13.51,7.35,10,0
-0.5202,0.021,0.996,-13.79,66.85,6.37,9,8
-0.7915,0.1118,0.73,-17.15,64.47,1.19,2,0
-0.8686,-0.0527,0.4299,6.37,10.85,10.01,3,0
-0.7374,0.1606,0.3328,-7.98,-37.59,14.14,4,8
-0.4651,-0.6803,0.7652,39.41,-68.95,9.17,8,8
-0.3684,0.3133,1.2439,21.49,-9.59,-8.4,10,8
-0.5456,0.1264,0.9618,-11.13,54.39,-1.82,0,0
-0.8169,0.163,0.5861,-10.71,38.5,-10.01,8,5
-0.7237,0.0425,0.4826,15.96,-4.69,-12.67,5,10
-0.8257,0.0044,0.4285,13.79,-48.37,-8.33,6,13
-0.4294,0.2982,1.0721,4.97,-57.54,7,1,3
-0.4329,0.0586,1.1326,1.12,23.38,-1.05,9,1
-0.6534,0.1215,0.8486,-5.04,57.05,-1.12,8,5
-0.8506,0.0249,0.548,3.85,23.87,-0.56,7,4
-0.7432,0.0151,0.3914,14.21,-23.03,1.68,10,6
-0.7579,0.1854,0.3577,3.5,-71.47,-1.61,8,6
-0.4104,-0.306,1.0799,84.7,-75.67,2.52,9,8
-0.2957,0.1249,1.3176,2.52,23.73,-6.51,0,8
-0.6163,0.1679,0.8877,-3.5,74.34,-5.11,10,3
-0.8291,0.102,0.6041,-8.12,49.28,-13.37,6,0
-0.7569,-0.0195,0.4158,37.87,-8.19,-9.03,6,6
-0.7505,0.1767,0.2904,19.32,-58.1,-10.78,9,7
-0.6715,0.4319,1.3981,63.56,-73.43,8.05,6,2
-0.2255,0.2201,1.2908,-3.15,46.97,3.08,3,0
-0.6398,0.1791,0.8618,-14.7,81.97,11.83,7,7
-0.8862,-0.242,0.5568,-21.42,42.98,28.21,8,3
-0.7671,0.0664,0.2704,-32.83,-14.35,41.23,0,5
-0.6759,0.2962,0.3782,-59.15,-55.93,45.99,1,6
-0.6852,1.1444,1.3181,38.92,-60.2,13.37,8,7
-0.4168,0.1078,1.1668,-27.79,36.26,-10.15,0,5
-0.6881,-0.0249,0.7969,-4.06,63.21,3.5,6,5
-0.815,-0.0434,0.4436,1.33,14.7,9.8,10,8
-0.8008,-0.0883,0.3387,-0.63,-37.59,18.27,1,2
-0.8886,0.4963,0.6734,-67.13,-80.85,16.1,5,12
-0.1235,0.7627,1.4411,-66.08,-22.05,-13.93,2,7
-0.49,-0.1196,1.0609,-7,55.16,-7.28,2,5
-0.7788,0.0952,0.6895,0.7,61.53,-3.92,6,7
-0.8028,0.1176,0.4626,-3.08,13.23,-4.13,5,8
-0.7764,-0.0693,0.385,1.54,-39.48,1.33,7,0
-0.6969,0.1864,0.8184,23.17,-79.1,11.97,5,7
-0.3323,0.264,1.3117,-10.29,-2.1,-7.42,2,0
-0.5524,-0.0029,0.9438,-1.54,61.81,-0.07,12,8
-0.8369,0.0386,0.6154,2.24,47.53,-2.45,0,3
-0.7862,0.0971,0.4397,-3.57,-0.42,-1.47,5,12
-0.7745,0.0732,0.3475,4.97,-52.99,5.46,8,6
-0.3831,0.4778,1.1268,10.71,-66.85,7.42,4,0
-0.3572,0.0712,1.219,-10.78,7.91,-6.65,4,7
-0.6032,0.0224,0.8784,0.63,55.51,0.91,4,1
-0.7847,0.1693,0.5949,-0.14,30.8,-3.29,6,8
-0.7676,0.0503,0.4372,0,-15.54,-0.21,10,6
-0.8169,-0.2133,0.61,6.86,-56.28,10.08,8,8
-0.3972,0.2084,1.1893,-7.98,-4.41,-3.92,3,3
-0.5836,0.0156,0.915,-3.85,46.13,0.42,5,9
-0.7769,0.0913,0.5998,4.41,32.34,-2.24,0,3
-0.7808,0.0766,0.4748,-2.24,-7.84,-1.75,6,8
-0.7613,-0.0576,0.4592,6.3,-49.28,4.13,8,7
-0.5231,0.2455,1.1297,-4.76,-40.39,-6.93,5,3
-0.488,0.0024,1.0663,-3.01,23.73,-5.11,7,6
-0.7286,0.1186,0.7481,9.38,39.41,-1.96,9,0
-0.7749,0.0473,0.529,0.7,6.16,-1.82,6,0
-0.7383,0.0098,0.4885,6.16,-32.06,3.78,11,9
-0.5275,0.266,1.0492,-2.73,-33.88,3.5,8,6
-0.507,0.0834,1.0429,-3.22,15.19,-1.47,5,8
-0.6895,0.082,0.8135,0.7,37.38,-0.14,9,4
-0.7666,0.0634,0.5592,-1.68,9.59,-0.07,11,9
-0.7701,0.0249,0.5261,-7.35,-24.64,3.85,6,4
-0.5544,0.3187,0.9906,2.66,-33.39,2.31,6,5
-0.5183,0.0942,1.0507,-3.92,14.28,-2.66,8,9
-0.6598,0.06,0.8345,-4.76,38.85,1.05,5,10
-0.7549,0.059,0.5993,-1.47,21.49,0.28,9,0
-0.772,0.0542,0.4904,-3.57,-13.23,2.45,6,5
-0.6193,-0.0815,0.549,4.2,-47.18,10.78,10,5
-0.5217,0.1488,1.1175,3.36,-27.86,-0.98,7,3
-0.5392,0.0644,0.9819,-2.94,27.37,-1.61,7,5
-0.753,0.0722,0.71,5.88,34.02,1.05,8,6
-0.7842,0.0834,0.4973,1.26,-4.83,1.82,3,6
-0.8003,-0.0044,0.5295,-7.56,-42.91,7.14,4,0
-0.5363,0.2728,1.0736,8.19,-58.66,3.43,7,6
-0.4006,0.1264,1.22,-9.24,14.91,-9.66,4,6
-0.6393,0.0556,0.8769,-4.55,57.82,-2.17,3,5
-0.8042,0.0683,0.5685,-6.3,38.64,-4.55,5,4
-0.7754,0.0068,0.3797,4.41,-25.2,-3.15,8,8
-0.7574,-0.1044,0.5251,15.19,-70.07,12.39,6,7
-0.3821,0.2557,1.2805,7.42,-44.03,-1.19,6,8
-0.4592,0.0312,1.0829,-6.72,39.62,-1.96,6,6
-0.7598,0.1513,0.7447,-0.07,54.39,0.07,3,7
-0.7964,0.0195,0.4656,6.51,9.45,1.75,5,10
-0.7715,0.0922,0.4094,-8.96,-36.26,6.44,4,8
-0.5212,0.4294,0.8799,42.35,-66.22,5.81,7,2
-0.4758,0.2338,1.2571,-14.63,2.8,-7.07,3,8
-0.5958,-0.0185,0.9057,-4.9,57.68,0.98,12,7
-0.8384,0.0415,0.5231,-2.17,24.71,-1.89,6,6
-0.7325,0.0337,0.3753,0.56,-22.19,0.07,5,3
-0.8081,-0.3148,0.4416,-3.64,-68.18,4.41,12,8
-0.4094,0.1059,1.2712,-10.99,-38.01,-16.24,13,0
-0.4704,0.0551,1.0985,1.54,38.99,-8.96,6,8
-0.8525,0.1161,0.7481,-2.17,50.68,-14.77,6,8
-0.7769,0.0776,0.447,17.29,7.98,-22.82,3,6
-0.7115,0.0586,0.3938,42.91,-34.79,-23.31,7,6
-0.6954,0.1376,1.0429,38.15,-52.99,-8.54,0,7
-0.4534,0.365,1.1912,21.63,-2.24,11.2,5,7
-0.6778,0.0586,0.7813,2.52,44.03,4.62,12,8
-0.7979,0.0464,0.5602,-15.61,15.82,4.9,4,6
-0.7315,0.0752,0.4377,-1.33,-23.73,12.81,4,3
-0.7154,0.1542,0.7681,-21.7,-54.88,17.78,3,7
-0.3299,0.1215,1.3352,-9.73,-33.25,-6.44,1,4
-0.4797,0.0039,1.1146,-2.38,46.9,-3.29,7,5
-0.7061,0.1513,0.791,-8.89,65.03,0.21,11,10
-0.8599,0.0244,0.4299,-16.59,15.4,0.56,9,2
-0.672,-0.0449,0.3538,5.88,-48.72,17.08,4,6
-0.8857,-0.6598,0.5763,48.44,-99.61,26.39,5,9
-0.1435,0.4011,1.424,3.99,-29.68,-9.94,3,7
-0.4748,0.1845,1.1024,-14.63,64.54,-3.78,5,7
-0.9023,0.0937,0.71,4.76,63.91,-4.06,6,12
-0.7935,-0.3123,0.4031,5.81,1.75,7.84,5,3
-0.4797,0.2323,0.2972,0.07,-44.03,16.31,5,8
0.0976,-0.8828,0.7935,103.32,-73.43,6.93,3,8
-0.2411,0.1845,1.3347,-2.24,8.61,-10.85,12,6
-0.5412,0.1064,1.0038,-11.2,74.13,-1.75,2,3
-0.8882,0.0571,0.5544,-12.53,40.88,-6.79,4,7
-0.9682,0.0483,0.4099,24.64,-22.68,11.97,8,7
-0.2035,-0.0976,0.2298,-3.64,-61.04,3.78,12,4
1.2839,-0.731,-0.0298,4.06,-143.22,10.01,4,6
-0.3743,0.1181,1.3947,-37.66,4.48,-7.42,9,8
-0.5783,0.0786,0.9614,-4.97,71.12,-2.03,7,3
-0.8345,0.2264,0.6783,-11.97,52.15,-8.4,3,8
-0.732,-0.0996,0.4485,44.66,-5.6,14.14,2,4
-0.2865,0.2118,0.303,-9.24,-53.9,18.27,8,13
-0.0503,-1.3093,0.7627,-173.95,-119.63,7.42,6,6
-0.6115,-0.2533,1.2473,-68.25,2.38,-7.35,4,5
-0.5588,-0.0039,0.9862,3.71,65.8,-2.31,6,7
-0.8394,-0.4187,0.4441,40.53,13.44,7,4,4
-0.7598,0.3504,0.4055,1.4,-59.22,13.23,2,6
-0.1532,-0.222,0.2596,15.75,-43.19,2.24,7,6
1.443,-1.4006,0.3387,8.89,-33.74,-5.04,4,5
-0.5041,-0.4846,1.1863,-28.28,32.9,-3.36,2,12
-0.6539,0.0708,0.8725,-13.72,75.32,-2.24,3,8
-0.8408,0.0327,0.6012,-26.95,45.29,-7.98,10,5
-0.7632,0.0049,0.4616,17.5,-8.19,1.4,0,5
-0.7496,0.2123,0.4319,13.02,-60.06,2.24,6,3
-0.568,-0.5983,0.7013,44.38,-107.24,12.18,5,4
0.2767,-0.0342,1.1605,-3.57,-8.82,0.35,9,32
-0.4348,-0.1698,0.8945,-1.33,24.29,-1.12,8,7
-0.6271,0.245,0.753,-1.26,11.83,1.47,6,0
-0.6842,0.1108,0.7784,-1.33,-6.16,-0.42,4,6
-0.5505,0.1103,0.8808,2.52,-6.86,2.1,6,5
-0.5978,0.1113,0.8257,18.13,-6.3,-3.08,12,7
-0.5622,0.1547,0.8335,-0.91,-6.23,-2.38,9,3
-0.5388,0.0625,0.8618,0.84,-0.91,0.7,6,3
-0.5246,0.1157,0.8686,-0.98,11.62,-2.59,5,5
-0.6803,0.0307,0.8843,15.96,17.57,-3.15,7,5
-0.6969,0.1444,0.6798,15.68,-14.07,7,0,3
-0.5226,0.2601,0.8911,-9.73,-25.9,2.87,6,8
-0.4573,0.081,0.9165,-6.3,-4.2,0,7,0
-0.4851,0.2411,0.9072,-10.71,14.91,-1.82,12,8
-0.6168,0.1171,0.9316,-16.59,27.65,-4.9,9,9
-0.65,0.0771,0.8369,-10.85,32.83,-6.3,5,7
-0.7247,0.0449,0.7056,0.28,22.33,-1.89,0,4
-0.7242,0.0454,0.6539,0.84,-7.07,4.06,6,6
-0.7222,0.0464,0.7203,4.06,-34.02,7.63,9,4
-0.6788,0.0766,0.7964,3.15,-54.6,12.53,7,7
-0.0732,0.0742,1.0765,-9.17,-11.06,-2.73,10,4
-0.4626,0.0698,0.9867,12.74,40.18,-2.59,12,10
-0.6364,0.1235,0.8013,-10.01,48.44,-4.83,4,6
-0.7486,0.0927,0.6398,-4.2,23.31,-2.17,0,7
-0.7945,0.0112,0.5758,0.56,-17.85,2.8,10,7
-0.6324,0.1737,0.8594,18.55,-51.66,11.13,2,0
-0.2406,0.3118,1.3215,-10.43,31.01,-13.51,5,3
-0.5485,0.0595,0.9389,-4.76,80.01,-9.66,5,0
-0.8369,-0.0551,0.6071,-9.73,61.81,-7.77,6,4
-0.8223,0.0137,0.467,-1.19,15.68,0.77,3,11
-0.7745,0.061,0.3626,0.42,-57.54,6.3,4,4
-1.7919,-0.2147,0.8452,-27.72,-140.21,24.01,3,0
0.6598,0.7042,2.2633,-41.93,-130.2,9.24,8,13
-0.2669,-0.4124,1.0263,-23.24,46.69,-5.25,8,0
-0.6432,0.0844,0.8433,-28.84,81.97,-7.28,7,5
-0.8267,0.1059,0.6061,-29.54,49.56,-10.57,3,7
-0.8208,0.0185,0.4699,-1.75,-15.05,-4.55,6,7
-0.8257,-0.0181,0.4914,7.56,-54.74,7.77,8,8
-0.7696,-0.0039,0.7237,5.18,-105.49,24.64,5,0
0.4099,0.3143,1.242,-14.91,2.94,-7.91,7,36
-0.3104,-0.1903,1.1278,16.94,59.15,-2.66,6,2
-0.6417,-0.0288,0.8115,-19.39,70.77,-8.05,6,2
-0.7847,0.022,0.5817,-20.86,36.75,-7.91,0,7
-0.7808,0.0795,0.3826,-4.13,-11.55,-0.7,3,8
-0.8081,-0.1523,0.5456,23.66,-66.15,12.04,6,7
-0.5612,0.2284,0.9184,42.7,-95.9,16.45,3,6
-0.3967,-0.0673,1.2429,-20.23,28.84,-13.86,3,4
-0.6398,0.0703,0.9453,-21.84,91.07,-6.79,10,6
-0.8281,0.0683,0.6622,-25.76,67.97,-10.92,5,8
-0.7984,0.1166,0.4602,3.85,15.12,-1.82,10,12
-0.8242,0.0839,0.344,10.22,-45.99,5.67,7,6
-1.5631,-0.3738,0.8808,-13.51,-128.31,22.05,9,4
0.2713,0.5173,2.3151,-20.93,-136.01,6.44,2,17
-0.4675,-0.3875,1.0058,-25.13,44.45,-5.39,4,0
-0.6432,0.0137,0.8501,-30.52,80.08,-8.33,7,7
-0.833,-0.1942,0.5744,-23.38,45.43,-9.38,5,8
-0.7989,0.0088,0.4787,17.43,-4.62,-5.81,11,8
-0.7906,0.1103,0.4763,2.73,-56.14,1.54,7,8
-0.8481,0.1698,0.795,14.63,-110.11,24.15,5,5
0.307,0.508,1.2869,-14.42,18.06,-14.49,7,32
-0.346,0.0532,1.1746,44.1,79.87,-5.11,6,4
-0.7227,0.0259,0.794,0.14,91.56,-11.34,8,12
-0.7686,0.0615,0.5305,25.13,50.05,-6.51,6,7
-0.7915,-0.0327,0.368,12.18,-5.32,-2.59,3,4
-0.8047,0.1103,0.3884,-0.63,-62.72,0.7,7,12
-1.0058,-0.7247,0.5495,0.07,-147.49,20.58,12,0
1.5187,0.4895,1.8407,-15.96,-30.59,-2.66,7,47
-0.2538,-0.3289,1.079,34.79,63.28,0.07,5,5
-0.6427,0.0161,0.8701,-21.07,90.65,-7.42,3,0
-0.7598,0.0322,0.5358,24.01,49.21,-6.44,6,8
-0.7867,-0.0908,0.3792,11.55,-0.56,-4.34,0,12
-0.7998,0.1108,0.3943,-5.18,-71.47,-0.35,1,8
-1.3088,-0.673,0.7247,12.11,-135.17,20.65,3,6
1.0136,0.4358,1.974,-18.9,-105.07,18.27,8,34
-0.4675,-0.4568,0.9984,-9.8,38.78,-1.96,6,5
-0.5612,0.2318,0.9633,-32.34,84.63,-2.8,2,8
-0.894,0.0834,0.7296,-29.05,66.64,-6.37,11,8
-0.7754,0.1752,0.4992,1.96,25.34,-5.74,8,9
-0.7906,0.1049,0.4319,12.81,-28.98,0.56,3,6
-0.8286,0.0634,0.5266,-14.07,-82.67,9.1,3,6
-0.7496,0.3699,0.9853,15.61,-127.05,27.16,1,5
-0.7764,0.0498,1.1097,-40.46,28,-11.55,5,3
-0.5002,0.5524,1.1219,-17.57,103.74,-5.18,7,6
-0.8872,-0.0298,0.6461,-19.11,87.78,-10.5,4,3
-0.8081,0.1044,0.4636,4.27,20.3,-2.87,5,5
-0.8159,0.0654,0.2855,27.93,-33.53,5.95,10,8
-0.7842,0.3177,0.3699,-23.59,-86.52,4.06,1,8
-0.4616,-0.8618,0.4309,49.77,-168.14,23.59,9,3
0.1352,0.5051,1.6768,-31.92,68.46,-15.68,3,72
-0.5412,0.3841,1.1092,70.42,75.88,1.47,14,12
-0.6812,-0.0854,0.7803,-25.34,87.01,-11.27,11,8
-0.7564,0.0664,0.5524,21.07,44.73,-9.73,10,8
-0.7998,-0.0151,0.4441,14.07,-1.33,-4.27,1,5
-0.8042,0.0795,0.4114,-4.9,-53.2,4.83,8,6
-1.444,-0.4128,0.8072,-26.6,-121.73,29.19,3,6
0.8608,0.7437,1.8964,-35.21,-51.03,-2.66,8,12
-0.286,-0.102,1.3425,26.81,73.71,-3.08,3,11
-0.6285,0.1566,0.8237,-5.18,102.83,-6.02,7,4
-0.7749,0.1118,0.5363,27.37,58.38,-2.45,7,5
-0.815,-0.1366,0.3372,12.6,4.48,2.03,2,6
-0.7808,0.2484,0.3304,-14.35,-58.03,5.81,0,8
-0.937,0.0346,0.6041,-17.22,-116.27,12.32,0,6
0.4714,1.0809,2.0901,9.59,-148.96,12.39,6,23
-0.488,-0.4992,1.0058,-16.1,45.99,-5.04,0,8
-0.5202,0.3152,0.9994,-33.95,90.51,-5.88,8,8
-0.9555,0.0415,0.7325,-22.19,70.28,-10.29,7,10
-0.7686,0.0522,0.5124,3.71,29.89,-10.64,5,8
-0.7823,0.101,0.4046,11.69,-19.53,-3.99,7,3
-0.7803,0.0249,0.4948,-9.52,-78.82,9.73,3,8
-0.8403,0.2728,0.8355,56.98,-128.24,30.59,10,10
-0.447,0.1864,1.4211,-49,22.54,-18.27,4,5
-0.5187,0.3528,1.0838,-18.97,108.43,-2.59,6,7
-0.956,-0.2323,0.69,-28.77,94.57,-5.25,0,0
-0.7764,0.0942,0.4553,3.01,43.68,-2.52,8,8
-0.7915,0.1259,0.2869,44.1,-22.26,11.27,6,7
-0.731,0.3318,0.3162,-30.73,-79.45,9.17,3,7
-1.5509,-0.6417,1.2717,-80.71,-150.36,40.95,5,9
1.5367,0.9326,1.7412,-39.55,10.5,-27.58,6,61
-0.3314,-0.0083,1.2161,102.97,102.83,-4.62,0,5
-0.9043,0.1098,0.893,-6.44,115.01,-12.32,8,12
-0.7286,0.2611,0.5422,-1.82,69.86,-13.65,3,4
-0.8408,-0.0649,0.3065,49.98,5.67,-5.67,7,5
-0.7618,0.243,0.2957,14.28,-46.27,-3.64,2,11
-0.812,0.2567,0.3738,-40.25,-101.15,-1.05,8,8
-0.6246,-0.9994,0.429,39.69,-188.79,27.23,3,7
-0.5675,0.609,1.81,-93.52,66.92,-12.04,8,65
-0.5568,0.6583,1.1868,61.39,81.9,3.29,2,5
-0.853,-0.061,0.7881,-14.28,104.79,-1.61,5,6
-0.751,0.2469,0.5534,6.58,63.77,-2.03,5,11
-0.8013,0.0181,0.425,9.94,14.77,0.91,9,4
-0.8067,0.1903,0.3436,-9.03,-38.64,5.46,3,5
-0.7935,0.0337,0.4738,-10.71,-94.99,18.9,6,5
-0.4548,-0.7052,0.5817,54.74,-147.28,30.31,0,7
0.0776,0.2645,1.8866,-74.34,51.52,-19.95,8,53
-0.5266,0.4768,1.1585,52.5,81.62,-0.28,4,5
-0.6827,0.1425,0.8335,-20.16,102.83,-11.06,5,10
-0.7315,0.264,0.5622,20.3,62.23,-9.31,5,10
-0.8233,0.0459,0.4065,19.81,8.26,-3.15,4,5
-0.7828,0.1508,0.3318,4.41,-46.34,4.06,7,6
-0.8418,-0.06,0.4568,-21.07,-105.42,15.47,8,8
-0.7979,0.1405,1.1775,96.04,-154,28.21,2,13
-0.345,-0.7383,0.9477,-26.32,55.65,-5.11,5,6
-0.5192,0.2162,0.998,-41.72,105.84,-2.66,4,0
-0.9048,-0.3167,0.6134,-6.3,75.46,-3.29,6,5
-0.7969,0.0883,0.4646,-1.96,32.83,-5.32,10,3
-0.7842,0.1205,0.3392,25.2,-24.92,4.69,3,4
-0.8496,0.1688,0.4392,-40.67,-73.64,6.51,6,6
-0.4978,-0.1405,0.6915,75.25,-142.38,30.38,6,12
-0.6642,0.3884,1.8085,-60.27,34.44,-17.99,5,34
-0.4729,0.4221,1.1453,38.71,91.42,-3.64,10,8
-0.8496,0.2401,0.8106,-27.86,95.48,-10.92,5,13
-0.7369,0.286,0.5197,8.82,49.91,-6.86,5,1
-0.8106,-0.0776,0.3377,21.56,-4.76,-1.75,7,3
-0.773,0.2557,0.3738,-5.04,-59.15,1.54,0,5
-1.5718,-0.3782,0.998,-45.71,-122.64,35,4,4
0.9765,0.9043,2.3468,-36.26,-110.53,11.27,2,16
-0.3977,-0.3621,1.1239,42.21,59.85,-0.91,5,3
-0.6349,0.0771,0.8096,-12.6,100.17,-3.78,7,8
-0.7462,-0.0029,0.5344,30.94,59.92,0.98,0,9
-0.813,-0.0478,0.3797,-2.73,10.15,-1.47,10,9
-0.7862,0.2377,0.346,-14.98,-51.38,3.22,7,4
-0.8789,0.039,0.651,-25.55,-106.61,14,7,12
0.1625,1.1634,1.5274,19.18,-135.45,12.32,6,8
-0.2094,-0.5202,1.0663,9.03,64.47,-5.95,7,7
-0.569,0.0371,0.9145,-30.24,106.4,-8.61,4,7
-0.8018,-0.2752,0.571,3.43,72.45,-7.98,7,9
-0.8072,-0.0298,0.4065,12.6,24.64,-6.86,6,2
-0.772,0.1928,0.3206,23.03,-34.23,0.84,3,4
-0.9575,0.1371,0.4616,-43.61,-90.79,3.29,3,13
-0.3353,-0.6041,0.591,70.91,-152.25,24.99,6,7
-1.1322,0.0415,0.8491,-44.59,19.46,-1.68,7,13
-0.5046,0.6359,1.0785,-6.79,85.26,-1.96,8,0
-0.832,0.0517,0.8203,-28.42,87.92,-6.3,3,8
-0.7379,0.2538,0.5261,2.8,44.87,-8.33,10,6
-0.7964,0.0132,0.4133,17.29,-5.95,-2.38,10,3
-0.8262,0.1259,0.4089,-9.17,-58.94,3.36,6,12
-1.2971,0.0303,1.0487,-46.41,-114.31,27.16,10,8
1.3742,0.6232,2.217,-47.32,-90.02,18.13,6,34
-0.3592,-0.5592,1.1004,24.29,51.8,-1.19,6,3
-0.6266,0.1127,0.8867,-30.94,96.74,-4.76,2,10
-0.7627,-0.242,0.568,21.28,63,-2.03,0,5
-0.8096,0.0122,0.4626,1.75,22.19,-4.76,7,8
-0.7569,0.204,0.3689,20.23,-36.75,2.87,5,8
-0.9277,-0.041,0.5085,-42,-87.15,7.07,9,7
-0.6876,0.2786,1.0063,89.18,-127.19,24.15,8,8
-0.73,-0.305,1.0653,-36.4,22.47,-8.33,8,5
-0.6461,0.0961,0.9248,-34.65,99.82,-6.16,6,8
-0.7427,-0.3084,0.5451,15.05,65.17,-3.43,6,8
-0.7774,0.0586,0.4455,-4.06,23.17,-3.5,8,6
-0.7666,0.1542,0.3475,12.95,-39.9,6.51,8,8
-0.8291,-0.002,0.4875,-27.16,-92.54,14.07,9,8
-0.6573,0.9672,1.2498,78.54,-130.62,21.91,8,6
-0.5939,-0.3494,1.0907,-10.43,35.63,-11.83,10,4
-0.5934,0.1298,0.9736,-31.64,102.06,-3.99,7,5
-0.7823,-0.3318,0.589,-5.53,71.4,-3.64,6,2
-0.7886,0.0595,0.4621,1.96,29.12,-4.48,5,6
-0.7764,0.2206,0.3226,25.83,-36.47,3.22,5,6
-0.9765,0.1035,0.4973,-47.11,-92.4,2.45,6,12
-0.5836,0.4177,1.3483,99.54,-129.43,17.43,3,3
-0.3318,-0.4455,1.1907,-8.61,46.62,-10.78,7,3
-0.6412,0.1283,0.9292,-36.05,107.66,-6.02,1,12
-0.7803,-0.3187,0.5383,24.5,72.38,-3.22,0,7
-0.8486,-0.021,0.427,-0.14,22.19,-4.76,7,5
-0.7793,0.2015,0.3123,29.47,-39.27,4.69,2,3
-0.9077,0.2411,0.4333,-44.52,-92.26,3.5,4,0
-0.3758,-0.2933,1.0077,104.58,-147.42,24.71,7,6
-1.0599,-0.2401,0.8511,-66.01,20.51,-3.08,14,6
-0.4294,0.7291,1.0995,-22.33,94.78,-2.94,2,0
-1.0067,-0.3274,0.7247,-13.79,76.44,0.42,4,5
-0.7623,0.1288,0.4831,-4.2,37.1,-4.13,0,0
-0.7837,0.1474,0.3577,32.9,-21.07,5.39,7,11
-0.7447,0.2845,0.3943,-36.26,-68.88,2.38,5,11
-1.4728,-0.7627,0.7862,-19.53,-147.84,26.67,1,7
0.8843,0.4836,1.1331,-40.25,40.04,-20.02,6,46
-0.2704,0.142,1.1985,52.43,79.59,-1.33,4,0
-0.7481,0.1288,0.7954,-19.25,87.71,-9.1,6,7
-0.7252,0.2869,0.5324,10.22,45.5,-5.04,2,2
-0.8233,-0.0991,0.3958,13.44,-5.32,-0.42,5,7
-0.771,0.2762,0.3963,-8.05,-60.62,3.36,12,8
-1.4542,-0.6378,1.0404,-48.58,-123.2,29.33,8,7
1.3791,0.5958,1.9325,-46.06,-5.18,-9.31,6,8
-0.4397,0.1449,1.2381,29.33,75.88,-2.66,8,6
-0.7071,0.2577,0.7676,-5.74,86.59,-5.18,3,6
-0.7457,0.2503,0.5461,16.87,41.93,1.26,4,4
-0.8159,-0.0825,0.3567,14.42,-10.85,4.2,7,8
-0.834,0.1708,0.4563,-17.85,-80.29,8.82,8,5
-0.2869,-0.5031,0.6583,103.6,-119.56,19.11,1,5
-0.6705,-0.3719,1.0663,-20.65,26.25,-8.75,5,3
-0.5905,0.1815,0.9682,-30.87,93.31,-5.67,3,5
-0.8013,-0.3118,0.6076,4.62,60.97,-5.67,1,5
-0.7706,0.083,0.4768,-0.84,20.65,-6.23,6,6
-0.7945,0.1723,0.3748,14.91,-40.74,1.33,9,2
-0.8657,0.0947,0.5148,-16.73,-92.61,9.31,10,9
-0.815,0.976,1.2888,84,-137.97,14.28,8,8
-0.794,-0.285,0.9179,-16.17,27.65,-3.15,6,1
-0.4558,0.4587,0.9892,-22.89,84.21,-3.71,8,6
-0.9594,-0.1693,0.7676,-17.78,63.49,-2.03,3,7
-0.7403,0.1835,0.4924,-5.67,30.38,-4.41,7,7
-0.7793,0.0132,0.429,9.17,-23.38,3.29,6,4
-0.7862,0.0781,0.5139,-15.26,-71.05,9.8,9,5
-0.6681,0.0342,0.7383,67.27,-121.45,28,9,9
-0.2323,0.3021,1.3806,-28.63,27.09,-14,5,35
-0.4353,0.1586,1.1312,41.02,77.49,-1.33,4,7
-0.6891,0.0903,0.8042,-17.92,84.14,-9.52,9,8
-0.7462,0.2279,0.5714,21.91,44.38,-5.11,6,7
-0.8096,-0.0342,0.4441,7.35,-5.74,-0.98,7,2
-0.7945,0.0732,0.4377,-9.59,-55.51,6.65,6,3
-1.2,-0.5783,0.8301,-3.64,-129.29,26.88,8,13
0.9267,0.4236,1.8881,-40.74,-38.22,-9.17,6,9
-0.3875,0.1747,1.2742,29.19,80.29,-4.34,4,7
-0.6778,0.3221,0.8067,-8.33,96.6,-7.21,0,5
-0.7706,0.2377,0.5314,16.59,47.67,0.56,3,7
-0.8335,-0.0815,0.3284,21.91,-7.7,3.5,5,7
-0.772,0.3143,0.3631,-6.51,-66.43,3.57,5,16
-1.5499,-0.8394,0.9575,-43.05,-139.93,30.87,7,6
0.8223,0.3289,1.5636,-53.9,33.32,-18.62,10,17
-0.3333,0.1113,1.1673,45.08,83.16,-5.95,5,9
-0.9457,0.1786,0.8184,-27.02,77.07,-8.12,4,8
-0.7242,0.1752,0.4968,-2.03,33.67,-9.24,2,10
-0.7998,-0.0234,0.3733,14,-21.21,-3.01,1,8
-0.7832,0.0981,0.4558,-3.43,-76.23,3.64,6,10
-0.4943,-0.0839,0.754,68.39,-124.32,23.8,9,0
-0.6076,0.3831,1.4128,-21.07,29.61,-11.48,12,23
-0.4085,0.1976,1.0726,48.09,79.59,-4.76,5,12
-0.9916,-0.0732,0.7803,-21.98,70.21,-5.46,4,3
-0.7257,0.1776,0.5065,-0.77,25.76,-3.01,0,3
-0.8028,-0.0293,0.4387,4.34,-24.43,5.11,10,8
-0.8018,0.1322,0.5388,-15.05,-73.08,12.88,11,7
-0.8745,0.5344,1.0092,47.81,-118.79,22.68,11,3
-0.7017,0.081,1.0936,-23.52,22.4,-8.68,5,6
-0.4338,0.4792,1.0316,5.95,74.27,-3.64,9,12
-0.8374,0.1327,0.7793,-27.16,70.28,-6.3,0,6
-0.7271,0.2499,0.5275,2.24,29.4,-4.41,8,11
-0.7871,-0.0644,0.4368,11.34,-22.4,2.31,8,6
-0.8018,0.1415,0.5168,-10.92,-72.87,7.77,3,8
-0.8306,0.3445,0.977,47.39,-116.2,22.68,7,7
-0.6759,0.2489,1.2912,-17.92,23.45,-9.17,3,6
-0.468,0.4704,1.057,11.97,72.8,-3.43,6,7
-0.7437,0.1771,0.7837,-24.64,75.39,-6.37,16,4
-0.7261,0.2596,0.5461,8.96,31.71,-2.8,7,8
-0.7954,-0.0961,0.4446,6.79,-15.47,2.17,6,10
-0.7715,0.1488,0.5056,-8.82,-62.72,8.61,4,5
-0.5017,-0.141,0.6798,70.14,-103.74,19.74,8,11
0.0093,0.2518,1.4157,-29.61,11.76,-15.19,3,7
-0.4763,0.2367,0.9838,-11.34,64.75,2.87,8,8
-0.73,0.04,0.6876,-40.39,49.84,8.05,5,3
-0.8032,-0.0478,0.59,-7.7,6.72,14.07,6,10
-0.7266,0.2279,0.571,8.96,-34.23,11.06,4,5
-0.812,-0.3972,0.6749,22.68,-75.6,8.61,9,3
-0.3548,0.4597,1.1619,-5.11,-72.45,1.4,7,4
-0.5744,0.2904,0.9194,-14.14,11.97,-0.63,5,3
-0.4612,0.1498,0.9521,10.43,38.08,-3.71,2,5
-0.6529,0.0342,0.8257,1.19,49.07,-8.05,6,6
-0.7218,0.0571,0.6803,-4.97,30.94,-6.3,0,3
-0.7481,0.0137,0.6315,-0.42,-2.03,-0.21,1,7
-0.6808,0.1015,0.7862,13.09,-23.52,5.11,8,10
-0.5378,0.1767,0.9418,0.91,-4.55,1.75,5,7
-0.6071,0.0976,0.855,-4.41,14.14,-1.54,5,0
-0.7027,0.0644,0.7017,-6.3,5.39,1.19,7,3
-0.873,0.0278,0.6505,-1.54,-21.91,6.09,8,7
-0.7574,0.0464,0.691,8.4,-55.93,13.51,8,16
-0.4709,0.4397,1.0228,13.86,-71.26,7.63,7,5
-0.4114,-0.0732,1.1551,-4.48,26.46,-6.86,8,5
-0.4753,0.2801,1.0228,-7.7,75.74,-8.68,7,3
-0.875,0.0844,0.7471,-21.98,66.43,-13.93,11,7
-0.751,0.0542,0.5285,2.31,26.46,-7.91,5,0
-0.7954,0.1039,0.4221,10.43,-24.85,-2.73,0,5
-0.7998,0.0732,0.4968,0.35,-74.55,3.85,8,7
-0.8096,0.2689,0.8696,52.5,-122.36,25.06,5,6
0.0786,0.3318,1.1844,-10.57,25.34,-13.09,10,60
-0.3226,-0.0839,1.0482,46.13,60.97,2.73,3,12
-0.6373,0.0537,0.8311,-18.13,73.71,-6.02,7,8
-0.7959,-0.1327,0.5895,3.5,38.15,-3.78,5,4
-0.7818,0.061,0.5236,-9.03,-1.54,-1.68,7,4
-0.7876,0.1381,0.5275,-9.17,-60.69,9.31,5,5
-0.6446,0.508,0.9004,18.34,-100.66,22.89,3,6
-0.4534,-0.0088,1.2132,-25.41,18.34,-14.98,3,5
-0.4587,0.2411,1.0175,-11.62,76.09,-0.49,8,7
-0.7959,0.2508,0.7237,-36.61,68.81,-4.55,4,5
-0.7706,0.2377,0.5144,6.93,19.95,1.4,8,7
-0.8057,-0.02,0.4177,4.9,-30.66,6.79,2,2
-0.8955,0.1552,0.5983,-13.72,-80.64,13.51,4,4
-0.3406,0.6666,1.241,9.73,-97.65,10.64,8,2
-0.4265,-0.3728,1.0424,8.96,41.72,-6.65,10,0
-0.6476,0.02,0.8501,-6.09,84.7,-5.39,3,9
-0.7837,-0.3226,0.5685,-3.57,55.09,-3.01,6,10
-0.7876,0.1283,0.4734,-14.77,10.43,-2.8,8,12
-0.8052,0.0903,0.4143,7.56,-41.93,6.93,9,5
-0.975,-0.0878,0.7178,-30.1,-87.5,24.01,5,0
-0.4241,0.7388,1.3518,19.11,-123.76,9.17,4,6
-0.3577,-0.1313,0.9911,-17.85,41.23,-3.99,3,3
-0.5339,0.2625,0.9423,-29.47,78.12,-2.8,8,0
-0.8672,0.0542,0.7505,-30.94,59.08,-5.39,3,16
-0.7374,0.2357,0.5168,-3.57,19.74,-6.09,2,3
-0.7681,-0.0093,0.4841,6.93,-26.39,0.28,5,12
-0.8125,0.0644,0.5998,-10.29,-69.65,9.24,5,7
-0.51,0.1967,0.9941,10.22,-96.88,19.53,2,8
-0.4792,-0.1786,1.2317,-27.51,29.82,-10.5,13,8
-0.5534,0.1449,0.9994,-23.87,94.22,-3.71,7,7
-0.9121,-0.1908,0.7549,-48.79,79.59,-5.81,7,5
-0.7652,0.2011,0.4953,-1.68,34.65,-3.71,5,7
-0.7862,0.1118,0.3636,30.52,-18.69,6.37,8,7
-0.7422,0.3099,0.3772,-27.93,-67.48,3.78,3,0
-0.7022,0.426,0.8886,77.35,-139.3,28.56,4,0
-0.8628,0.0893,1.0687,-20.58,25.06,-5.04,7,8
-0.4421,0.591,1.0936,1.61,82.25,-5.18,4,7
-0.8237,0.2128,0.7774,-25.41,82.46,-14.63,6,7
-0.7276,0.2318,0.5446,8.96,36.61,-10.57,1,2
-0.7925,-0.0317,0.4163,15.75,-11.55,-5.25,7,3
-0.7798,0.0864,0.4451,-1.4,-60.27,0.77,4,7
-0.9057,-0.7013,0.6251,65.45,-126.07,19.81,6,10
0.774,0.7305,1.889,-28.21,-43.05,-3.29,8,9
-0.2991,0.2294,1.2654,39.06,76.02,-7.07,5,6
-0.7564,0.2528,0.8306,-7.7,94.57,-14.49,8,6
-0.752,0.1059,0.5505,28.14,50.26,-8.54,8,7
-0.812,-0.0971,0.3709,17.36,-1.61,-5.88,6,6
-0.7457,0.2323,0.3684,8.26,-56.07,-2.87,5,10
-0.8769,-0.1737,0.8028,-7.28,-100.31,28.56,3,5
0.2616,0.7115,1.5523,-0.63,-76.79,2.94,7,5
-0.3123,-0.3206,1.119,43.68,62.23,-8.54,10,11
-0.6695,0.1645,0.8164,-1.26,85.33,-10.22,4,3
-0.7681,-0.1118,0.5573,34.3,49.91,-7.84,6,0
-0.792,-0.0278,0.4299,-3.15,0.28,-8.05,0,8
-0.8057,0.1249,0.3704,17.22,-58.03,2.73,6,11
-0.7788,-1.0248,0.7798,34.58,-112.42,23.73,6,10
-0.2372,-0.1166,1.3601,-44.24,-4.27,38.01,5,4
-0.4641,0.0161,1.0936,-63.84,83.51,53.9,6,11
-0.8877,-0.0176,0.7364,-89.25,80.36,62.86,8,6
-0.8301,0.283,0.4914,-56.91,38.78,53.06,10,6
-0.6866,-0.123,0.3816,-32.83,-26.6,39.48,7,8
-0.8769,0.222,0.5309,-28.77,-80.85,7.91,1,3
-0.6983,1.0375,0.7808,77.77,-129.29,27.44,2,5
-0.5954,0.3841,1.2498,-19.18,18.34,-20.86,5,8
-0.548,0.4685,1.0024,35.14,90.44,-65.8,8,3
-0.8413,0.0434,0.7042,25.97,79.24,-81.76,3,8
-0.7349,0.181,0.5178,95.2,31.71,-67.55,9,5
-0.7447,-0.001,0.386,114.73,-17.99,-45.99,2,5
-0.7096,0.2216,0.428,59.5,-61.6,-36.96,9,12
-0.6178,0.3157,0.6734,-19.53,-85.33,-44.03,4,7
-0.8072,0.3475,1.5406,137.69,-72.52,21.77,4,3
-0.1122,0.6934,1.3747,-35.63,51.94,26.04,0,7
-0.6598,0.0742,0.9555,-73.29,107.8,51.87,6,5
-0.8184,-0.082,0.5441,-49.98,73.85,62.65,9,4
-0.7784,-0.0268,0.4748,-84.28,24.15,61.32,8,8
-0.7481,0.1962,0.3416,-42.56,-25.13,67.48,6,10
-0.8369,0.3328,0.4192,-73.01,-71.47,50.82,12,0
-1.0019,-0.3914,0.6115,91.7,-153.44,42.49,5,6
1.6055,0.2274,1.666,-46.06,-9.66,-20.93,10,20
-0.2279,-0.2762,1.1473,45.36,68.04,-30.03,3,3
-0.6876,0.429,0.8306,-5.25,88.06,-51.24,6,8
-0.7032,0.0717,0.6076,75.95,46.48,-56.21,8,8
-0.7286,0.0449,0.5119,74.27,4.9,-53.83,8,7
-0.7584,0.1479,0.466,79.8,-45.92,-47.25,8,7
-0.7061,0.2655,0.4812,-7.56,-77,-46.76,10,0
-0.3343,-0.8101,0.6188,81.69,-123.13,1.61,0,4
0.0791,0.0122,1.5006,-15.33,21.77,-10.15,1,8
-0.3133,0.3026,1.1278,-33.04,99.19,0.77,10,5
-0.8516,-0.1327,0.7457,-57.82,92.54,1.12,7,7
-0.7354,0.1879,0.5226,-4.9,53.34,7.77,5,8
-0.8115,-0.0361,0.3538,10.92,2.1,13.79,7,3
-0.7369,0.2054,0.3401,-11.9,-69.72,17.5,3,7
-0.8047,-0.2411,0.5134,-34.02,-112.28,29.12,4,8
0.7369,1.2966,1.8842,-25.06,-88.83,12.6,9,6
-0.0176,-0.1118,1.2956,52.43,83.44,-7.98,10,6
-0.7427,0.184,0.8154,-5.81,103.11,-10.5,3,3
-0.7457,0.141,0.5763,8.96,63.56,-3.99,3,6
-0.8062,-0.042,0.4187,26.6,13.51,0.28,3,8
-0.753,0.2664,0.345,21.84,-35.77,2.38,0,8
-0.7403,0.2206,0.4685,-46.2,-80.43,-2.52,8,1
-0.5895,0.1825,0.7291,102.69,-148.89,19.39,9,3
-0.3045,0.2542,1.34,-25.48,21.91,-13.16,6,11
-0.3689,0.4709,1.1873,36.82,84,-3.01,6,8
-0.8472,0.2684,0.8184,-38.29,93.66,-8.68,1,4
-0.7261,0.203,0.5095,14.63,45.85,-3.5,9,10
-0.8203,-0.0376,0.4036,8.89,-6.23,-2.87,3,8
-0.772,0.2303,0.3841,6.37,-58.94,2.1,0,3
-1.5523,-0.4421,0.9994,-24.08,-127.26,30.66,7,8
1.5811,0.5929,2.0638,-19.39,-73.08,-2.1,9,7
-0.1845,-0.2948,1.2576,56.35,79.94,-5.18,6,5
-0.6934,0.2054,0.8091,-10.57,100.8,-13.23,4,2
-0.7393,0.1645,0.5514,12.18,57.47,-6.44,8,4
-0.8213,-0.0805,0.3606,20.65,-6.3,-2.24,8,2
-0.733,0.3016,0.3558,3.29,-60.9,1.75,8,5
-1.4191,-0.5309,0.9243,-33.53,-121.17,33.74,8,5
1.1229,0.6895,2.2824,-43.75,-99.61,10.08,5,13
-0.2259,-0.4597,1.1605,23.87,70.21,-4.2,8,6
-0.7457,0.0205,0.7652,-14.77,92.96,-5.6,10,8
-0.7291,0.1308,0.5822,6.02,57.75,0.42,7,8
-0.8003,-0.0224,0.3904,-5.74,6.86,-0.21,4,13
-0.7696,0.1488,0.3777,7,-45.99,7.7,9,4
-0.8442,-0.0673,0.5768,-9.73,-98.21,34.37,5,8
0.8086,0.7906,1.8881,-34.3,-34.86,-3.43,9,5
-0.325,0.3021,1.2493,-9.73,96.88,-6.65,7,6
-0.9579,0.3611,0.8818,-37.59,99.4,-6.58,6,8
-0.7906,0.1786,0.5056,1.26,53.62,1.12,0,5
-0.7632,-0.0371,0.2694,37.66,-4.97,12.6,7,0
-0.69,0.3455,0.305,-16.87,-64.19,10.5,12,3
-0.9262,-0.4246,0.6529,-56,-121.45,22.12,8,5
0.6993,1.6524,1.9422,-9.73,-101.64,14.56,0,10
-0.124,-0.3719,1.1644,35.56,67.2,-3.5,3,8
-0.6744,0.0732,0.7818,-16.38,94.43,-5.88,4,6
-0.7447,0.0669,0.5817,11.97,53.83,-2.45,3,2
-0.8423,-0.0444,0.4138,-2.8,6.86,-3.99,5,5
-0.7569,0.1947,0.3826,0.49,-49.35,3.57,6,5
-0.7218,-0.1274,0.7867,-21.7,-83.51,8.89,5,7
0.1098,0.5261,1.6031,-43.26,-19.04,-4.55,3,6
-0.3821,-0.1532,1.1912,4.34,86.66,-9.03,8,8
-0.9379,0.0005,0.8276,-27.72,91.98,-7.49,6,8
-0.8701,0.0542,0.5173,-8.33,52.99,-4.06,8,0
-0.7296,0.0898,0.243,52.64,-4.2,9.24,6,9
-0.7315,0.3489,0.2689,-12.11,-56.56,6.02,7,8
-0.9213,0.2079,0.7335,-93.31,-96.11,6.09,6,3
-0.489,1.4147,1.3186,164.43,-128.87,29.82,6,6
-0.182,0.0986,1.3806,-16.31,25.48,-10.99,3,7
-0.5622,0.0361,0.9418,-16.94,100.24,-9.1,6,2
-0.7515,-0.2386,0.6051,-0.14,74.27,-9.31,5,8
-0.8081,0.0351,0.4299,-9.66,32.48,-6.65,5,2
-0.7779,-0.0459,0.3294,20.44,-29.89,5.81,0,6
-0.7413,0.3001,0.3323,-6.79,-76.37,7.7,0,4
-0.8862,-0.997,0.893,13.02,-147.14,20.79,9,1
-0.0581,0.0859,1.4142,-28.84,1.05,-12.81,0,5
-0.6603,0.0859,0.9052,-9.8,106.75,-8.33,7,7
-0.7989,0.1171,0.5671,14.14,71.12,-2.8,3,8
-0.7862,-0.1503,0.3328,22.12,8.96,1.54,10,6
-0.6632,0.2347,0.2845,25.97,-41.3,6.23,3,4
-0.632,0.4255,0.2801,-44.38,-77.84,-2.45,7,0
-0.4616,-0.1781,1.1444,238.56,-82.04,17.08,8,3
-0.1488,-0.2172,1.3693,21.35,34.37,-11.41,6,0
-0.6637,0.0386,0.8911,-11.69,72.03,-8.61,3,3
-0.8154,-0.0278,0.5846,11.55,58.94,-1.68,3,6
-0.8208,-0.2064,0.3841,3.43,2.24,2.8,5,9
-0.6725,0.3387,0.3026,26.6,-50.4,11.34,1,8
-0.8257,0.366,0.5529,-69.86,-87.5,2.03,0,3
-0.507,1.0575,1.5431,170.8,-109.83,22.96,3,6
-0.2987,-0.5261,1.2512,1.89,49.42,-11.55,0,5
-0.6163,-0.0454,0.8594,-18.48,102.83,-9.94,2,5
-0.7657,-0.0503,0.568,11.06,54.11,-8.26,8,6
-0.7349,-0.0752,0.4333,16.24,19.88,-5.46,0,0
-0.7344,0.1298,0.3284,32.34,-33.6,3.5,9,1
-0.7388,0.3011,0.3245,-23.17,-79.94,-0.28,3,4
0.2752,-0.8955,0.8374,140.84,-105.07,14.14,8,8
-0.1327,-0.2811,1.2756,-13.51,28.35,-10.78,7,5
-0.5378,0.0791,0.9623,-12.18,98.49,-5.6,12,8
-0.7476,-0.2059,0.5724,3.99,71.82,-1.54,4,8
-0.812,-0.2176,0.3909,16.8,7.07,3.36,9,5
-0.711,0.3172,0.3274,15.82,-60.41,4.13,8,2
-0.0517,-0.0576,0.1596,7.07,-28.28,10.01,7,3
0.0029,-2.4117,0.7915,122.15,-92.19,14.35,8,8
-0.344,-0.4787,1.1849,-150.92,25.83,-6.72,9,7
-0.5383,0.3875,0.9101,-42.84,93.24,-6.02,7,2
-0.8218,0.122,0.5446,18.2,44.45,-0.35,8,2
-0.795,-0.0659,0.3148,49.77,-17.15,12.04,7,8
-0.3821,0.1103,0.2528,-3.29,-57.19,4.34,5,7
-1.6187,-1.1936,1.6202,-270.2,-108.43,36.75,2,1
0.4314,1.544,1.6206,-121.31,19.53,-7.21,3,5
-0.4787,0.3665,1.0594,15.89,82.81,-8.47,10,7
-0.8433,-0.0986,0.6891,-17.01,68.74,-5.25,6,6
-0.9111,0.0229,0.468,-0.98,10.85,-2.24,5,10
-0.7149,0.2899,0.3348,39.97,-48.93,4.13,8,9
-1.2176,0.9555,0.3484,14.63,-64.4,-2.94,5,6
-0.3904,1.1717,1.6607,287.77,-75.25,10.92,5,10
-0.3221,-0.4246,1.1936,53.48,60.55,-7.91,3,6
-0.7276,0.0996,0.8442,-15.05,94.15,-7.14,8,3
-0.8555,0.0625,0.5148,24.22,45.29,0.07,10,4
-1.0512,0.2011,0.3426,49.98,-23.59,7.56,4,9
-0.3167,-0.0142,0.2679,-8.61,-59.43,4.62,5,10
-3.0476,2.6372,1.811,-4.83,-126.14,-3.15,2,7
0.0278,1.2556,1.7695,314.16,-60.34,0.35,9,8
-0.3304,-0.3787,1.1585,50.96,65.45,-5.74,8,4
-0.8852,0.0581,0.8003,-20.93,81.2,-8.61,7,9
-1.0653,-0.0317,0.4656,26.88,15.12,5.25,4,8
-0.5197,0.2533,0.4114,-3.5,-79.24,-3.43,6,7
-0.0264,-0.0693,0.2201,26.6,-26.88,3.01,4,3
-3.7395,-0.3782,0.8247,-365.47,-264.6,86.38,4,8
-0.5261,1.8022,1.5933,-66.5,20.79,-10.85,8,4
-0.5183,0.4065,1.0194,11.55,85.96,-2.59,4,8
-1.036,-0.5549,0.6032,13.23,45.71,5.18,6,0
-1.3937,0.8769,0.5441,57.19,-62.23,20.65,9,8
-0.0468,-0.4431,0.2743,-3.08,-89.95,5.81,8,5
-0.5768,0.2147,0.5256,25.06,-57.54,-14.49,3,3
-1.7114,0.3597,1.4152,-51.59,30.03,-15.05,5,180
-0.6207,-0.3777,0.8076,22.4,-28.35,15.4,3,20
-0.4924,0.1962,0.792,19.18,-37.03,1.26,8,5
-0.122,0.2367,0.7437,10.99,-15.89,7.14,4,3
-0.3523,0.0932,0.8623,-5.95,3.22,3.92,6,37
-0.2547,0.1362,0.7891,-6.79,24.92,-3.15,4,28
0.365,0.1464,0.4768,-35.77,116.2,-10.92,3,5
2.3424,-1.3586,0.0015,134.26,100.1,6.65,6,8
-0.5178,0.5168,1.178,-23.59,62.02,-8.26,8,8
-0.7403,0.0288,0.8823,-25.62,100.31,-15.54,3,3
-0.7735,0.1264,0.5924,6.51,74.83,-5.53,5,8
-0.813,0.0556,0.447,11.2,32.2,0.77,8,10
-0.7686,0.1191,0.3089,19.18,-14.49,2.8,4,4
-0.8081,0.0844,0.3933,-20.37,-61.32,0.84,8,8
-0.8013,0.0722,0.5119,-3.22,-114.03,15.68,10,8
-0.3924,-0.4094,0.6451,63.42,-159.81,31.85,4,3
0.6085,0.2606,1.4162,-8.54,43.96,-15.61,4,96
-0.792,0.0859,0.8286,14.21,-45.5,21.07,1,10
-0.4402,0.0922,0.7486,-8.75,-36.96,-2.52,6,10
-0.0537,0.0024,0.7764,15.05,-8.68,5.46,5,8
-0.2245,0.0683,0.7823,-5.53,40.04,-5.32,0,5
-0.9975,0.5827,1.2205,-82.81,96.25,-2.73,8,6
-0.5788,0.6256,1.301,-11.48,58.87,25.83,8,3
-0.5402,-0.2113,0.895,-89.6,82.95,77.63,5,5
-0.8115,-0.1415,0.7725,-93.24,69.23,97.51,7,6
-0.856,0.1693,0.5041,-84.84,25.06,98.7,3,3
-0.7569,0.0132,0.448,-96.25,-31.36,75.81,3,5
-0.8442,0.0961,0.5363,33.18,-93.31,69.58,8,0
0.022,0.6905,1.4118,-15.54,-32.48,-15.4,8,16
-0.4665,-0.0346,1.1531,9.87,61.46,-66.08,0,4
-0.7784,0.2128,0.7403,66.78,69.58,-115.5,4,6
-0.8682,-0.2757,0.4929,183.4,7.07,-121.45,12,7
-1.0038,0.5939,0.3289,182.49,-76.44,-115.85,6,6
-0.063,-0.0444,0.2235,82.88,-69.37,-81.69,5,9
-1.5884,-2.3556,1.0956,-503.23,-162.4,-13.93,7,7
-0.1039,1.2268,1.4474,-80.57,37.87,34.79,10,3
-0.5646,-0.5114,0.9618,-167.23,108.78,134.05,8,8
-0.9013,-0.6139,0.7296,-98.77,83.16,131.46,9,2
-0.6871,0.0766,0.5187,-67.48,39.69,119,5,4
-0.673,0.327,0.4109,-92.05,5.18,103.67,6,8
-0.6544,0.3055,0.4734,-162.54,-24.71,68.88,10,7
-0.4817,-0.9516,0.6671,33.46,-64.05,84.98,10,10
-0.3045,0.3767,1.26,-10.01,-11.62,-30.1,6,7
-0.5202,-0.1508,0.9448,147.42,63.7,-108.22,7,7
-0.8764,0.1025,0.7164,112.28,43.47,-142.38,8,8
-1.0165,-0.0576,0.4329,165.13,-29.19,-132.02,8,7
-0.7847,0.6983,0.285,189.28,-108.64,-83.23,5,9
0.223,0.0317,0.1742,84.49,-49.14,-26.53,3,4
-2.8846,-2.7265,2.6084,-698.32,-147.28,-37.94,8,6
1.2717,3.5482,1.6748,-126.42,24.36,14.7,6,3
-0.6461,0.7213,1.2581,80.01,95.48,57.54,7,8
-0.9048,-0.4436,0.7218,-44.24,74.9,83.72,7,3
-0.7535,-0.0322,0.4494,-43.61,24.29,86.52,5,8
-0.8203,0.1606,0.4602,-70.07,-33.39,63,4,2
-0.204,-0.3421,0.3314,-66.22,-44.38,3.85,8,8
2.0667,1.4367,0.6764,101.85,-46.34,88.2,7,9
-0.0849,0.7149,1.2459,3.64,7.84,-22.75,8,6
-0.551,0.1078,0.9809,26.67,87.01,-34.72,11,6
-1.0189,-0.2035,0.5246,109.69,29.26,-18.83,9,8
-0.73,0.5973,0.5124,4.06,-107.17,-54.11,3,9
-0.1415,-0.2323,0.3616,49.28,-75.46,-39.34,10,10
-0.4182,0.4494,0.4348,-13.37,-44.94,-17.22,2,8
1.0365,-0.8008,0.8374,-10.5,-118.79,13.51,8,10
0.1444,-0.569,1.0521,16.8,65.1,3.57,6,7
-0.6525,0.5134,0.9492,-55.3,86.87,13.51,5,9
-0.6383,-0.1723,0.8125,-66.36,69.09,34.02,4,5
-0.6705,0.1405,0.8706,-30.94,34.58,48.16,0,8
-0.995,0.0239,0.9472,-50.05,-89.74,29.26,4,8
-0.1493,-0.0952,0.8091,33.74,-113.96,1.89,5,6
-0.1874,0.1171,0.7754,36.33,-69.09,-30.59,3,10
-0.2352,0.1137,0.7803,31.85,-0.91,-18.55,3,7
-0.3601,0.0576,0.8018,16.8,31.15,17.92,9,10
-0.6612,0.2728,0.7315,25.9,65.59,104.09,8,0
-1.0824,0.7003,0.6773,-82.32,56.28,126.7,0,3
-1.1068,0.04,0.7193,-120.05,13.16,128.17,3,9
-0.7945,0.0322,0.7437,-29.61,-6.02,115.64,8,7
-0.6066,0.2494,0.7432,-2.8,10.92,97.23,9,7
-0.6115,0.2157,0.7569,1.54,23.52,83.44,0,3
-0.6168,0.2274,0.7657,28,22.75,91.63,4,10
-0.5754,0.4314,0.773,-2.73,12.04,94.08,7,6
-0.2967,-0.1357,0.7632,-33.67,49.63,1.47,10,4
-0.8008,0.549,0.792,33.6,53.76,-10.78,4,6
-0.7442,0.1791,0.771,-20.44,32.55,-14.56,5,1
-0.6539,0.3406,0.7842,-0.35,24.08,-27.79,6,3
-0.7632,0.1937,0.7481,14.21,30.1,-35.07,6,2
-0.7989,0.0966,0.734,-0.42,18.13,-39.41,8,5
-0.7476,0.1893,0.7022,-6.37,11.83,-36.75,6,7
-0.7725,0.2611,0.671,-6.02,2.38,-25.97,7,9
-0.7218,0.184,0.6486,-9.87,1.68,-9.17,2,5
-0.7881,0.1503,0.6324,-7.77,0.77,5.39,3,5
-1.0453,0.3382,0.6661,-4.83,-32.83,42.56,0,7
-1.2942,0.9384,0.6739,6.72,-127.47,237.44,5,8
-0.4534,-0.0454,0.6832,-66.71,-154.63,193.83,6,2
-0.6217,0.223,0.8047,-12.25,-155.26,46.83,6,3
-0.4294,0.3274,0.6578,-7.63,-141.96,-0.07,8,8
-0.4958,0.6095,0.8267,-50.26,-144.06,-36.26,8,7
-0.2035,0.059,0.7832,-37.73,-153.86,-145.74,12,8
-0.2455,0.0239,0.8823,42.98,-128.03,-233.31,2,8
0.2669,0.6442,0.8506,-14.98,-58.45,-242.2,5,2
0.0503,0.0337,0.9155,-54.53,22.47,-233.73,9,10
-0.3777,0.2059,1.0141,-55.79,37.59,-186.55,6,9
-0.1996,0.1596,0.976,-44.59,32.34,-101.71,3,3
0.082,0.1235,0.8974,-81.27,83.23,-53.06,7,3
0.0615,0.0869,0.8608,-1.19,168.14,-22.68,9,7
-0.3133,0.2255,0.7632,-7.49,232.4,0.07,7,10
-1.1453,0.4982,0.693,5.32,229.25,87.5,8,0
-1.1473,0.3806,0.8262,-136.43,85.33,120.05,6,8
-0.5705,-0.2484,0.8106,-6.51,124.67,128.03,3,4
-0.082,0.1952,0.7993,19.74,31.08,100.8,6,7
-0.6778,-0.1362,0.8316,-74.27,33.46,96.53,3,8
-0.8189,0.1176,0.7105,-6.51,0.14,72.94,4,7
-0.9184,0.1459,0.5012,-25.13,-6.79,60.76,0,10
-0.7178,0.2982,0.5719,-11.06,-2.59,55.93,10,12
-0.751,0.1972,0.6129,-12.04,-8.4,45.99,9,6
-0.6676,0.5383,0.6412,-29.96,-29.4,89.53,3,3
-1.1268,0.6812,0.6651,-17.5,-87.78,171.01,9,3
-0.9218,0.2518,0.6437,-63.21,-160.44,167.86,3,0
-0.6159,-0.06,0.7603,-21.91,-206.78,97.86,7,0
-0.1474,0.3187,0.795,-43.19,-190.96,3.08,4,12
-0.3333,0.0791,0.8384,-26.25,-174.65,-73.43,6,4
-0.1767,0.1249,0.7832,7.84,-158.34,-193.06,5,5
-0.3128,0.222,0.856,55.79,-148.61,-238.77,5,7
-0.0605,0.3904,0.7964,-2.45,-91.98,-223.58,2,6
-0.1591,0.3109,0.7706,-27.09,-33.32,-186.2,7,1
-0.2396,0.3855,0.855,-55.93,8.96,-138.81,6,6
-0.3445,0.202,0.8657,-14.84,48.23,-59.15,5,11
-0.4226,0.2542,0.8608,-38.43,64.75,-1.82,8,3
-0.3582,0.0683,0.8618,-23.66,88.2,9.31,6,6
-0.5187,0.1996,0.9121,-7.28,91.42,2.66,3,0
-0.4524,0.1049,0.936,-4.69,91.49,-10.71,10,8
-0.447,0.1493,0.9438,6.3,92.4,-20.72,6,10
-0.5046,0.2791,0.9482,11.2,86.03,-14.42,0,7
-0.4699,0.2006,0.9179,1.82,79.73,-6.23,8,2
-0.4758,0.181,0.937,-7.84,75.46,-1.75,8,3
-0.3836,0.1269,0.915,4.62,66.85,7,4,4
-0.2625,-1.9154,1.5094,-267.47,12.81,34.51,7,5
0.0878,0.8364,1.0331,-77.28,48.02,-4.76,5,7
-0.588,0.0015,1.0741,-22.75,89.95,-12.04,7,4
-0.7105,0.1723,0.8286,7.35,97.09,-7.42,5,6
-0.8818,-0.022,0.5758,14.42,82.88,2.59,0,3
-0.813,0.1244,0.3928,10.78,48.44,20.3,11,12
-0.814,0.1152,0.326,-40.32,10.36,30.66,6,6
-0.8481,0.1366,0.3211,-82.18,-52.64,40.18,3,6
-0.8223,-0.1103,0.7139,-129.22,-67.2,53.55,3,3
-0.7305,1.0809,1.2673,-30.52,-64.61,16.73,5,2
-0.5739,-0.0049,1.1819,3.36,35.07,-34.37,12,7
-0.7315,0.1957,0.8179,50.82,58.87,-44.8,0,2
-0.916,0.0527,0.4856,66.57,36.89,-42.28,4,5
-0.8262,0.123,0.3484,56.98,-5.46,-35.35,3,6
-0.7056,0.1362,0.3182,11.13,-57.68,-21.42,7,9
-0.7998,0.2318,0.3148,-61.39,-101.71,-18.27,3,3
-1.1161,-0.2679,0.8428,60.2,-165.55,16.24,3,9
0.0444,0.4963,1.6524,18.9,-39.97,-5.88,4,7
-0.3811,0.083,1.2019,-3.43,104.51,-9.38,3,10
-0.9501,0.0039,0.7418,-11.2,101.71,-10.22,3,3
-0.8223,0.0073,0.4016,13.02,59.22,-3.22,4,7
-0.7476,0.1527,0.2904,8.96,-6.65,2.45,0,5
-0.6715,0.1352,0.3255,-24.99,-63.98,4.83,4,0
-0.8813,-0.2167,0.3831,-6.72,-135.03,22.89,4,5
-0.6988,0.7198,1.261,53.62,-166.46,23.45,7,7
-0.2782,-0.1352,1.3674,-51.45,51.1,-17.36,3,7
-0.6412,0.3133,0.9897,-19.11,136.71,-12.46,5,7
-0.7818,0.0932,0.5656,26.6,96.81,-8.33,4,3
-0.8525,-0.0459,0.285,32.55,38.08,-1.47,3,7
-0.6583,0.2338,0.2791,2.17,-29.75,1.82,4,8
-0.7447,0.1747,0.3421,-55.23,-89.39,0.84,3,4
-2.2048,-0.3582,0.6822,-14.21,-171.08,33.18,8,8
0.9453,0.774,2.1169,-33.18,-62.23,-8.33,8,0
-0.2167,-0.224,1.3503,61.25,98.14,-8.75,10,7
-0.9218,0.0249,0.8623,-7.42,123.06,-11.34,5,0
-0.773,0.0752,0.5153,12.46,75.18,-13.16,5,5
-0.7906,0.1893,0.2874,45.29,18.34,-7.21,6,8
-0.7086,0.1415,0.3382,-8.19,-45.22,-4.76,0,9
-1.1649,-0.0547,0.4138,-50.26,-103.04,3.08,8,5
-0.3811,0.6832,1.4557,27.51,-111.65,14.63,1,2
-0.121,-0.0181,1.5045,-12.39,54.11,-19.95,6,6
-0.6686,0.2655,0.9018,8.26,120.96,-31.08,8,5
-0.7008,0.1874,0.6188,71.26,76.23,-39.9,5,10
-0.7959,0.163,0.3231,115.64,24.22,-50.75,4,6
-0.7232,0.0551,0.263,115.57,-39.34,-49.21,10,8
-0.7364,0.3475,0.3309,58.59,-92.12,-40.53,2,2
-0.754,0.7042,0.5319,-55.37,-108.01,-37.87,10,8
0.4587,-0.6056,1.2449,198.8,-64.54,18.83,5,6
-0.1371,0.1874,1.3742,-21.63,74.27,38.01,6,11
-0.8184,-0.5256,0.8926,-84.28,116.06,79.87,3,8
-0.813,0.2157,0.5275,-102.62,87.64,76.09,0,3
-0.6656,0.0054,0.4499,-67.34,39.62,96.88,8,2
-0.7418,0.2743,0.303,-87.92,-9.59,96.46,8,2
-0.7891,0.3001,0.3626,-105.56,-58.45,83.93,7,7
-0.9921,0.0327,0.7808,-64.33,-117.53,62.16,1,12
0.3104,0.9311,1.5089,76.44,-60.9,-31.92,7,8
-0.3113,-0.3806,1.0429,157.22,74.62,-95.62,5,8
-0.9038,-0.3118,0.7374,112.56,77.35,-119.77,5,4
-0.7164,0.1108,0.5734,142.1,27.65,-111.79,3,5
-0.7481,-0.124,0.3694,145.67,-20.93,-95.48,12,7
-0.6539,0.2513,0.3797,89.88,-66.92,-64.68,0,0
-0.7252,0.101,0.3919,-24.57,-91.49,-47.53,0,3
-1.0253,-1.3776,1.3464,-64.96,-140.35,35.07,5,6
-0.2157,-0.0273,1.4943,-115.36,26.25,67.55,3,9
-0.5441,-0.0268,1.0536,-112.77,115.43,88.9,10,2
-0.8379,0.1269,0.6002,-66.01,95.62,86.94,9,3
-0.7135,-0.1762,0.5041,-70.35,45.71,86.87,3,9
-0.7017,0.285,0.3016,-38.08,-10.99,84.91,7,0
-0.7178,0.3762,0.3533,-78.68,-61.81,47.25,8,6
-1.181,0.5022,0.7857,-86.8,-111.16,32.9,11,13
0.2172,0.9267,1.5528,62.79,-62.58,-38.57,2,0
-0.3455,0.1503,1.0111,149.59,47.46,-102.34,12,8
-0.9272,-0.042,0.7349,141.68,48.02,-122.15,7,7
-0.8286,0.0083,0.3787,199.43,-1.47,-107.52,0,2
-0.5993,0.6837,0.3231,101.78,-36.47,-57.33,9,0
-0.5095,0.3904,0.5197,-45.43,-38.29,-30.38,8,7
-1.4855,-2.0203,1.3337,-224.56,-77.28,7.77,6,6
-0.6129,-0.8398,1.1375,-182.28,46.97,99.19,5,6
-0.7525,-0.0371,0.8667,-59.85,89.67,107.66,16,10
-0.9267,-0.1601,0.649,-59.5,59.15,107.8,3,7
-0.7369,0.4812,0.3523,-53.83,21.7,71.68,6,8
-0.7447,0.0839,0.2987,-77.7,-26.32,-1.82,6,7
-0.508,0.5007,0.4153,-60.2,-60.69,-20.02,9,7
-0.651,-0.246,1.3771,11.2,-87.08,15.26,5,8
-0.386,-0.6305,1.262,-30.66,35.14,-52.43,5,6
-0.8545,0.1083,0.8955,39.34,80.78,-79.38,3,7
-0.8272,0.0522,0.5827,110.53,46.9,-81.62,8,7
-0.8408,0.1049,0.3548,155.19,-5.46,-47.74,4,3
-0.6129,0.4192,0.2464,41.23,-36.4,-10.01,7,6
-0.6925,0.0508,0.4582,-35.21,-68.39,-31.57,5,7
-0.9448,-1.1419,1.5509,-108.36,-81.34,-15.47,0,7
-0.4397,-0.0527,1.3571,-73.57,18.27,19.04,6,5
-0.8794,0.0127,1.037,-29.61,87.99,26.53,0,7
-1.2937,0.0996,0.4172,-35.21,59.92,28.63,6,5
-1.0287,0.5378,0.2484,-33.39,6.51,12.25,6,3
-0.2547,-0.2367,0.1718,-6.16,-16.24,0.49,3,7
-2.4864,1.728,1.9505,-181.02,-80.43,17.22,8,6
-0.2645,1.6499,1.1302,-2.66,-60.34,3.5,6,8
-0.3533,-0.0888,1.3171,-18.27,64.4,1.05,12,4
-0.936,0.1776,0.6368,7.35,81.83,-4.97,6,10
-0.8169,-0.1967,0.3587,3.64,32.06,-3.5,8,4
-0.6515,0.2362,0.1825,23.03,-6.93,3.36,9,1
-0.6725,0.1537,0.143,-13.02,-43.82,2.73,8,9
-1.4586,-1.118,1.5128,-128.1,-45.36,11.13,3,9
-0.49,-0.2835,1.3225,-58.31,-1.05,-7.49,5,0
-0.795,0.0708,1.0341,6.16,73.01,-5.53,6,7
-0.9789,0.1186,0.5124,-7.14,46.48,-15.26,5,12
-0.7369,-0.0298,0.1957,-0.28,-1.82,-10.78,6,9
-0.6573,0.0639,0.1098,25.97,-38.36,2.17,8,8
-0.5402,-0.4753,0.5558,-35.98,-41.44,10.5,6,7
-0.8316,0.0669,1.3483,-52.71,-32.41,5.88,3,7
-0.693,-0.0234,1.1854,9.1,56.7,4.76,10,8
-1.0058,0.1967,0.5661,11.06,42.28,-5.81,12,4
-0.7896,-0.164,0.2708,25.83,-4.76,5.6,5,6
-0.326,0.63,0.122,0.14,-6.86,2.87,7,7
-1.3601,-1.6572,0.3597,11.13,-25.76,11.13,3,6
-0.8228,0.3792,1.1414,11.06,28,-6.65,7,8
-0.9209,0.1786,0.5441,15.19,33.88,-10.71,8,3
-0.8867,-0.0878,0.2655,25.83,-21.56,-5.95,5,9
-0.1884,0.8379,0.3245,-16.94,2.45,-23.17,5,12
-1.0585,1.078,1.1317,39.62,-11.55,-3.29,5,8
-0.9345,0.182,1.0687,-10.99,24.85,-1.47,5,5
-1.0209,0.1005,0.4948,13.3,20.37,-7.21,4,7
-0.9121,-0.1039,0.1444,5.67,-42.77,-3.29,8,8
-0.4773,0.7647,0.3967,-30.66,-0.28,-10.57,2,6
-1.1688,0.1942,1.3732,-37.87,-21.35,2.94,3,7
-0.7969,0.0322,1.1156,-7.77,43.54,-3.29,8,12
-0.9414,0.0839,0.2528,5.18,25.34,-7,10,5
-0.8047,-0.1435,0.0464,-9.8,-53.69,0.49,5,6
-0.2308,0.7501,0.3582,-13.65,2.24,0.63,5,0
-1.2673,0.2694,1.4479,-37.59,-32.55,10.5,5,6
-0.7403,0.1215,1.1878,-10.99,37.59,-9.24,3,5
-0.9526,0.081,0.5368,-2.03,38.36,-11.55,5,0
-0.9457,0.0454,0.1576,-7.28,-15.75,-6.02,9,10
0.2669,0.1601,-0.0039,8.82,-7.7,1.61,3,3
-1.2278,0.2191,0.9584,-24.99,-39.76,7.63,6,9
-0.8018,0.0766,1.1126,-1.96,14.49,-0.21,8,4
-1.0321,0.1283,0.6017,7.07,32.41,-3.78,0,9
-0.8857,0.059,0.1952,3.99,-16.31,-3.36,3,9
-0.6046,-0.0034,0.0986,-9.38,-60.9,5.81,6,9
-0.6749,0.0215,0.6022,9.8,-72.31,19.95,5,4
-0.5714,0.5602,1.4591,7.28,-59.64,-0.28,3,2
-0.5734,0.0054,1.1585,-5.18,54.32,-9.38,4,6
-0.9374,-0.0024,0.5636,1.4,62.65,1.05,4,8
-0.8628,0.0556,0.2635,-7.07,5.39,3.15,6,6
-0.3689,-0.1122,-0.0898,-1.68,-39.83,9.94,7,7
-1.1956,-0.1205,1.323,-17.01,-41.37,6.37,8,5
-0.631,0.1152,1.1858,-4.9,48.51,-9.38,7,5
-1.0287,0.1371,0.5885,12.39,59.36,0.91,9,10
-0.9091,0.1259,0.1889,-1.89,2.87,-0.98,0,11
-0.1767,-0.0181,-0.1932,3.99,-48.93,6.09,11,10
-1.1844,0.57,1.0067,-6.93,-48.79,6.86,4,0
-0.6154,0.1157,1.2093,-18.2,6.51,-9.52,8,6
-0.978,-0.0698,0.7418,8.89,57.4,-0.14,3,4
-0.8901,0.0786,0.2054,0,-4.69,-1.47,5,3
-0.1874,0.0551,0.1991,-3.36,-14,3.5,3,6
-0.8062,0.1854,1.2527,9.24,-19.74,-0.77,8,3
-0.7735,0.063,1.0272,-8.54,49.63,-4.55,3,9
-0.9472,0.0508,0.4168,0.28,32.06,0.49,8,10
-0.9482,0.0581,0.1303,-3.36,-32.55,0.84,5,10
-0.0981,-0.124,0.0234,9.17,-49.21,15.89,5,4
-1.1126,-0.142,1.2054,-14.84,-63.63,11.13,3,1
-0.5846,0.0825,1.2127,-15.47,29.26,-11.62,6,3
-1.0214,0.0166,0.6037,9.1,48.86,-0.98,7,6
-0.8379,0.0659,0.2176,-3.01,-6.23,-0.91,6,8
-0.4714,0.0112,0.3938,-5.81,-14.56,5.67,3,8
-0.7984,0.1342,1.2727,12.39,-14.28,-2.24,6,8
-0.8091,0.0342,1.0453,-13.44,59.92,-7.35,10,3
-0.997,0.0547,0.4026,1.12,39.69,-0.42,12,8
-1.0346,0.0732,0.1283,-4.41,-29.4,1.54,8,8
0.1952,0.0132,0.0683,15.82,-37.94,15.82,5,8
-1.3542,-0.0468,1.1258,-10.22,-70.7,16.31,7,7
-0.631,0.1088,1.1502,-3.57,-1.89,-7.91,5,2
-0.9101,-0.0063,0.6388,9.87,28.91,3.08,5,11
-0.7676,0.0522,0.2674,-5.18,-19.32,3.99,10,11
-0.5797,0.3104,0.7657,-0.98,-3.64,-0.21,9,7
-0.7174,0.081,0.9887,-7.98,24.29,-10.08,3,10
-0.9496,-0.0376,0.7359,8.54,49.21,0.07,6,8
-0.9482,0.1542,0.2894,1.05,0.63,-2.31,8,7
-0.5768,-0.1337,-0.0361,-8.89,-63.21,7.56,5,4
-0.8638,0.6237,1.0307,3.08,-44.87,16.87,8,9
-0.5915,0.1771,1.2439,-17.29,16.31,-9.52,3,3
-1.058,0.0893,0.6769,13.16,58.59,-3.64,7,12
-0.9257,0.0693,0.1996,6.79,3.92,-1.4,10,8
-0.4953,0.2162,0.3026,-23.45,4.55,2.73,8,12
-0.9648,-0.1039,1.0258,6.09,-19.18,1.68,8,3
-0.8023,0.0786,0.9945,-3.5,37.1,-2.94,7,3
-0.9194,0.0937,0.3972,8.12,23.52,-1.54,8,3
-0.855,0.0576,0.0268,-9.73,-50.19,0.98,7,3
-0.7588,-0.2757,0.5895,23.66,-32.55,23.45,8,6
-0.7471,0.3338,1.28,25.34,-33.6,6.16,8,7
-0.7432,-0.0083,1.0292,-3.22,44.87,-5.88,7,7
-0.9023,0.1318,0.3875,9.31,25.34,-1.82,5,1
-0.8179,0.0644,0.0961,-11.27,-32.41,-2.24,0,4
-0.7374,0.3235,0.6368,-2.45,-20.86,0.14,8,8
-0.7779,0.0752,1.1195,-7.91,9.38,-2.38,6,0
-1.0472,0.1405,0.6217,11.76,44.52,-0.35,9,8
-1.0131,0.1357,0.2025,2.73,-10.92,-3.99,4,5
0.1069,-0.0068,-0.266,1.47,-49,4.9,8,6
-1.3737,0.3845,1.1122,-35.49,-44.59,11.41,4,7
-0.67,0.1362,1.1849,0,16.24,-2.73,6,8
-1.0175,0.0522,0.6612,9.24,56.21,-0.14,4,3
-0.9687,0.0893,0.1771,2.52,-2.59,0.42,6,7
0.1235,0.0288,-0.1225,-10.29,-32.2,6.65,9,4
-1.2703,0.1942,1.1219,-31.85,-41.93,10.5,6,6
-0.6705,0.1059,1.1561,-0.56,27.58,-1.54,7,5
-1.0199,0.1083,0.5534,12.18,54.32,3.71,0,4
-1.0385,0.1928,0.1435,-5.6,-19.74,-1.05,7,8
-0.0283,0.021,-0.2103,-6.3,-59.99,4.34,7,5
-1.2483,1.0814,1.1082,20.37,-56.98,14.49,9,8
-0.5924,0.0576,1.2454,-13.44,15.19,-8.19,10,3
-0.9877,0.121,0.591,13.09,58.1,0.35,7,4
-0.9672,0.1659,0.1991,3.29,-3.22,-2.31,4,3
-0.2294,0.4695,0.3606,-33.46,4.27,1.61,7,5
-0.8886,-0.1815,1.0917,-3.71,-17.15,5.67,4,4
-0.7779,0.2377,1.0063,-0.35,41.58,-2.8,12,3
-0.8891,0.1288,0.3772,7.63,28.7,-2.52,6,8
-0.9252,0.0434,0.0342,-20.02,-40.25,-3.5,8,8
-0.59,-0.1264,0.3723,-17.01,-38.22,14.14,6,6
-0.9414,0.019,1.2302,18.9,-51.03,5.25,3,4
-0.7125,0.1005,1.1029,-5.81,33.25,-6.02,8,8
-0.9936,0.0996,0.4621,7.84,33.6,-1.12,6,6
-0.8111,0.1362,0.1889,-9.38,-18.48,-2.45,7,8
-0.8032,0.081,0.5812,20.65,-23.66,7.28,8,2
-0.7964,0.3182,1.1405,-0.77,-4.13,4.41,0,7
-0.8452,0.039,0.8808,-2.8,45.15,1.47,3,8
-0.8638,0.0834,0.3279,4.27,17.15,0.42,4,0
-0.5783,-0.0117,-0.0073,-18.41,-39.76,0.84,0,7
-0.8628,0.344,0.795,-18.41,-13.37,7.35,3,8
-0.791,0.1474,1.0785,2.24,13.93,-2.59,3,10
-0.895,0.0971,0.7266,-4.34,50.19,-4.27,3,3
-0.9453,0.1308,0.2635,9.8,5.04,-6.86,6,6
-0.4943,-0.0122,-0.0195,-20.02,-63.42,-7.63,4,6
-0.8208,0.3811,0.7027,39.06,-46.48,6.37,0,0
-0.813,0.3875,1.2542,-10.43,-8.33,3.29,8,6
-0.9194,0.0015,0.8525,1.82,54.46,0.42,4,6
-0.8916,0.0844,0.1762,6.23,1.19,-0.91,2,5
0.0547,0.0098,-0.102,-14.49,-35.84,0.98,7,0
-1.2322,0.0776,1.0512,-19.04,-29.89,6.65,0,8
-0.7271,0.1122,1.1361,-0.14,27.23,1.68,5,4
-1.1053,0.0625,0.5431,4.41,51.38,0.91,4,1
-1.0268,0.2596,0.1508,-10.57,-9.73,-3.85,7,4
-0.0098,-0.103,-0.2206,-13.37,-49.77,4.41,9,6
-0.8989,0.5446,0.9428,-25.69,-44.03,12.95,5,4
-0.6822,0.0068,1.1902,1.26,7.56,-0.98,6,10
-0.9814,0.1181,0.6783,10.64,53.69,4.48,5,8
-0.8969,0.1181,0.2196,7.63,2.1,0.56,6,7
-0.2582,0.0078,-0.0429,-12.25,-40.25,3.64,6,6
-1.1956,0.223,0.8833,-21.7,-49.84,12.11,4,4
-0.7481,0.1205,1.0131,-2.87,-13.51,4.2,7,5
-0.9648,0.0752,0.6861,14.42,14.49,4.83,3,4
-0.8154,0.1161,0.2499,-6.02,-30.87,1.61,1,8
-0.5324,0.0766,0.5988,10.01,-26.18,-0.91,3,8
-0.6559,0.1401,1.1058,-3.01,10.57,-8.54,5,9
-0.8472,0.0268,0.8491,-4.06,51.31,0.56,3,6
-0.9248,0.1908,0.327,5.81,12.81,-3.29,4,6
-0.669,-0.0498,0.0761,-11.06,-54.04,1.33,10,4
-0.8369,0.3074,0.7881,7,-54.39,5.95,12,7
-0.5768,0.1444,1.2234,-12.25,-2.03,-7.35,6,0
-0.9126,-0.0434,0.876,3.57,59.78,-0.49,7,10
-0.8706,0.1674,0.2611,-0.14,17.36,-3.01,6,10
0.0015,-0.0586,0.0913,0.98,-11.2,3.29,8,7
-1.221,-0.103,1.1107,-12.46,-24.15,1.68,6,8
-0.7286,0.121,1.0321,-4.97,35,-3.08,7,7
-0.9887,0.1679,0.5651,7.84,42.91,-1.05,5,6
-0.9536,0.1728,0.2172,-4.48,-7.14,-5.6,7,0
-0.5661,-0.1425,0.2455,11.13,-27.51,12.39,12,10
-1.0087,-0.0288,1.0394,2.73,-39.55,9.38,8,8
-0.7237,0.1254,1.0077,0.14,17.57,-2.24,4,8
-0.9106,0.143,0.447,5.74,15.75,0,4,8
-0.4085,0.0303,0.1298,-6.86,-20.23,0.56,4,11
-0.9638,0.0342,1.0941,-4.97,-9.87,-2.8,9,9
-0.7886,0.0791,0.9335,-2.8,33.53,-4.13,3,7
-0.9936,0.1269,0.528,6.02,36.68,-0.56,5,7
-0.9672,0.1693,0.1693,-10.15,-26.39,-7.84,4,3
0.0327,-0.1532,0.0917,4.62,-40.32,8.89,7,12
-0.8764,0.0747,1.1756,16.1,-50.75,9.45,7,8
-0.6739,0.0771,1.0482,-2.52,20.51,-3.57,12,7
-0.9277,0.08,0.4919,7.35,21,-0.21,4,6
-0.8023,0.0922,0.2386,-11.34,-26.39,-1.96,3,5
-0.7828,0.2128,0.6686,15.4,-33.6,5.46,7,8
-0.6612,0.347,1.181,1.4,-3.5,1.61,8,6
-0.8433,-0.0556,0.8965,1.82,49.14,3.71,3,3
-0.8623,0.2147,0.3323,6.79,0.91,1.82,9,11
-0.6271,0.001,0.0488,-13.72,-39.69,-0.56,3,10
-0.8574,0.2611,0.9272,-15.82,-20.72,4.55,8,5
-0.692,0.1083,1.0941,-0.98,25.9,-1.26,1,7
-0.9843,0.0327,0.6603,4.55,52.78,2.66,8,5
-1.0019,0.1371,0.2513,1.12,-4.69,-3.78,9,3
-0.4402,-0.1064,-0.0303,-23.24,-59.08,-0.42,7,5
-1.1209,0.5661,1.0038,-7.84,-54.25,8.61,8,6
-0.6002,-0.0073,1.1893,-4.48,7.49,-4.27,5,9
-0.9316,0.001,0.7627,1.82,57.61,3.15,3,7
-0.8696,0.0976,0.266,0.14,14.14,0.91,8,3
-0.4075,-0.1137,0.1986,-7.14,-10.08,6.65,5,11
-1.0263,-0.0986,1.0292,8.82,-20.86,2.87,8,10
-0.752,0.0913,0.9453,-1.12,28.21,-0.42,0,7
-0.9472,0.1191,0.5022,5.32,26.81,1.61,7,8
-0.8252,0.121,0.1576,-15.96,-36.89,-5.6,2,8
-0.69,0.2948,0.6861,2.66,-30.31,3.57,6,6
-0.6393,0.1664,1.1014,-4.27,-3.92,1.54,6,11
-0.8994,0.0176,0.7603,4.48,39.2,3.15,8,4
-0.8682,0.0947,0.307,-0.7,2.87,0.35,6,8
-0.5334,-0.0205,0.0542,-15.33,-39.27,1.12,1,5
-0.9653,0.0786,0.875,-18.2,-35.07,0.84,6,4
-0.7037,0.0517,1.036,2.31,10.92,-0.7,9,1
-0.9238,0.04,0.59,7.49,33.32,5.95,0,8
-0.8198,0.1357,0.2743,-5.74,-10.57,1.47,7,7
-0.7535,0.0517,0.5378,14.98,-31.29,4.97,4,12
-0.7681,0.3353,1.12,-3.57,-3.08,-1.75,12,6
-0.8081,0.0083,0.8701,0.49,45.92,4.41,12,8
-0.9531,0.1581,0.3475,4.97,21.35,3.43,3,3
-0.7627,0.0254,0.0917,-32.41,-51.8,-5.32,8,8
-1.0141,-0.141,0.6525,22.47,-63.91,12.32,6,0
-0.5734,0.5646,1.3664,-2.31,-32.34,-2.03,8,8
-0.7174,-0.0195,1.0175,-7.7,69.02,1.47,0,3
-0.9804,0.1869,0.3504,2.1,34.58,2.45,3,11
-0.7462,0.0317,0.1318,-17.71,-28.77,-1.75,2,6
-0.7139,0.2464,0.5666,20.58,-42.14,5.6,4,8
-0.6817,0.2386,1.1873,-8.4,-12.6,-1.4,14,0
-0.792,0.0112,0.9145,-2.17,48.3,1.82,10,10
-0.936,0.141,0.366,3.15,25.83,1.54,9,3
-0.6608,0.0273,0.101,-14,-29.75,-2.17,8,7
-0.7466,0.1591,0.8364,-8.75,-22.54,3.43,6,6
-0.6954,0.0981,1.1029,2.45,19.67,2.03,4,8
-0.9155,-0.0098,0.7505,1.12,53.76,5.88,5,10
-0.9565,0.1781,0.2845,3.5,1.61,-1.96,0,6
-0.3797,-0.083,-0.0649,-24.57,-56.7,0.77,6,4
-1.0004,0.2118,1.0165,-23.59,-56.49,3.57,4,4
-0.5988,-0.0737,1.1897,2.24,10.99,-3.5,3,4
-0.9482,0.0303,0.7091,2.03,55.37,3.36,6,8
-0.9033,0.1352,0.2059,1.4,2.03,-3.36,0,3
-0.6242,0.0712,0.0766,-8.68,-47.46,-4.41,8,2
-1.0209,0.1893,0.9784,-0.21,-56.28,-0.49,2,3
-0.6056,0.0917,1.1448,-3.29,-0.28,0.14,3,8
-0.9038,0.0605,0.7154,1.82,43.12,2.94,8,8
-0.8301,0.0927,0.266,2.31,-5.53,-4.76,8,7
-0.5241,0.0054,0.1523,-2.1,-44.1,-4.34,6,8
-0.9267,0.1737,1.1244,20.37,-49.35,3.08,5,1
-0.591,0.1352,1.0878,-10.08,22.54,1.96,8,8
-0.9126,0.0781,0.6212,3.64,45.99,4.69,9,8
-0.8403,0.1152,0.2274,-4.55,-8.61,-1.75,11,3
-0.6046,-0.0093,0.2289,-12.04,-51.73,1.54,0,5
-0.7481,0.325,1.1736,-4.06,-47.04,2.66,8,7
-0.5612,0.0063,1.0965,-1.19,35.7,1.82,3,0
-0.9179,0.1049,0.6134,3.01,56.28,5.81,7,6
-0.8247,0.0454,0.2098,-8.33,-9.38,2.1,5,2
-0.4865,0.0595,0.2328,-10.92,-42.77,9.66,6,7
-0.6715,0.2279,1.1829,6.16,-42.35,0.84,5,3
-0.5749,0.001,1.0926,-0.84,37.59,-0.28,2,5
-0.9545,0.0293,0.5861,11.76,49,5.95,8,7
-0.8057,0.0986,0.2113,-9.1,-4.9,-0.56,4,2
-0.6193,0.0444,0.222,-9.17,-45.01,5.39,4,4
-0.9306,0.1591,1.0424,11.76,-65.59,-3.01,8,0
-0.5441,-0.0068,1.1131,2.66,12.88,-5.81,10,6
-0.8638,0.1752,0.5568,7.42,30.38,7.63,12,3
-0.8306,0.0927,0.327,-10.36,-41.44,0.77,7,2
-0.7364,0.2821,0.915,3.29,-62.58,2.03,5,6
-0.5597,0.1542,1.1063,-9.52,-12.81,-2.8,6,9
-0.6598,0.0239,0.9087,-0.63,43.12,0.28,12,15
-0.8633,0.124,0.4294,1.4,19.25,2.87,2,10
-0.6871,0.019,0.3338,-0.91,-28.98,4.34,6,10
-0.6808,0.1108,1.0404,-0.49,-24.71,-4.2,8,3
-0.6139,0.0703,0.9721,-0.63,37.87,-1.61,0,3
-0.9365,0.0878,0.6329,2.1,52.36,4.2,6,6
-0.8555,0.0825,0.345,-6.3,6.3,1.68,9,9
-0.5998,0.0727,0.5085,7.35,-28.42,6.58,0,10
-0.6525,0.1244,1.0702,3.01,-8.54,-2.1,8,6
-0.6959,0.0044,0.8882,0,41.16,3.08,9,1
-0.8672,0.1893,0.429,7.84,24.36,5.18,6,4
-0.8301,0.0039,0.2396,-8.75,-28.42,2.17,5,10
-0.9292,0.0888,0.8969,-6.79,-40.46,-0.91,11,7
-0.6237,0.0864,1.0268,-3.71,10.92,-4.9,7,0
-0.8901,0.0478,0.6939,4.41,43.96,4.2,7,3
-0.8784,0.1479,0.3128,-2.38,-3.01,-1.54,9,3
-0.7471,0.0781,0.2367,-11.69,-52.57,1.82,4,6
-0.7486,0.3894,1.0814,-11.55,-52.15,-2.45,8,7
-0.5661,-0.0771,1.0468,0,17.78,-1.12,7,2
-0.8994,0.1254,0.5905,4.13,36.05,6.09,7,3
-0.794,0.164,0.3499,-7.21,-10.64,1.75,9,4
-0.7491,-0.0742,0.6281,2.8,-42.56,3.85,3,12
-0.5929,0.0947,1.0882,5.46,-9.24,-3.64,4,8
-0.692,0.0327,0.8857,-2.87,42.14,3.78,7,10
-0.8857,0.0976,0.428,6.37,19.95,2.66,0,7
-0.8423,0.001,0.2982,-2.1,-30.94,1.89,12,4
-0.792,0.3172,0.8286,13.23,-50.54,0.07,13,9
-0.5793,-0.0664,1.0536,1.54,33.32,-1.47,10,8
-0.913,0.12,0.6256,4.27,51.38,7.14,9,11
-0.8755,0.0937,0.2879,-9.59,1.26,1.47,8,3
-0.5768,-0.0249,0.2943,-3.15,-37.66,10.29,3,9
-0.6788,0.2513,1.1961,0.7,-33.88,-5.04,8,5
-0.6622,0.0044,0.9848,0.35,35.28,1.96,9,12
-0.9189,0.0917,0.5241,7.84,36.75,6.72,6,3
-0.7588,0.0864,0.2455,-11.2,-12.81,1.33,5,7
-0.8745,0.0151,0.4211,-10.15,-53.97,3.64,4,7
-0.608,0.0517,1.1536,0.56,-36.96,-3.92,5,4
-0.6593,-0.0171,0.9238,-0.28,42.91,6.16,7,8
-0.8974,0.1527,0.4246,4.55,19.18,5.25,9,4
-0.8608,0.0703,0.3245,-6.51,-30.73,0.14,8,9
-0.9306,0.1454,0.791,19.39,-69.58,-1.19,0,5
-0.5202,0.2279,1.1126,-7.56,-19.46,-1.47,1,10
-0.6495,-0.0059,0.8564,6.02,39.2,5.11,5,8
-0.8599,0.1923,0.4275,10.99,15.05,5.25,12,4
-0.8682,0.1064,0.4148,-4.34,-38.36,2.24,8,4
-0.7584,-0.0181,0.8086,3.29,-78.05,4.69,8,12
-0.4807,0.223,1.1561,-3.08,-20.65,-4.69,7,5
-0.5563,0.0166,0.9472,-1.4,46.55,2.1,6,7
-0.8638,0.0839,0.5163,10.01,28.42,2.8,9,4
-0.8242,0.0268,0.3743,-3.29,-24.36,5.46,3,8
-0.6051,0.1078,0.8037,17.85,-61.95,1.68,7,3
-0.4807,0.164,1.1424,-11.06,-3.01,-4.83,1,7
-0.6183,-0.0127,0.9057,7.84,45.57,4.06,3,8
-0.8462,0.1757,0.4294,10.43,15.75,4.9,5,5
-0.8784,0.0625,0.4153,-8.54,-43.26,7.56,6,7
-0.3948,0.0229,0.5949,-2.8,-81.97,9.59,1,7
-0.3401,0.04,1.4128,-32.83,25.06,-15.12,6,3
-0.6256,0.0039,0.8745,-3.99,89.74,3.85,8,5
-0.8477,0.1264,0.5148,-17.99,59.85,-0.63,7,8
-0.8252,0.0708,0.3279,-6.65,11.69,3.99,3,7
-0.8686,0.0459,0.3304,-12.46,-54.25,12.39,6,5
-1.0268,0.0044,0.6051,4.48,-115.01,20.79,4,3
-0.1098,0.4519,1.4786,3.85,-67.83,-3.78,7,8
-0.3289,-0.0278,1.2717,-3.71,63.42,-9.66,2,3
-0.7022,0.1191,0.8223,-8.19,111.72,-6.37,0,7
-0.9077,0.0078,0.489,-6.09,74.76,-8.05,10,10
-0.8555,0.0244,0.2786,2.66,17.22,-3.85,3,5
-0.8735,0.0142,0.2542,7.21,-53.97,5.39,5,6
-0.9906,-0.0966,0.4055,2.45,-124.32,13.72,9,8
-0.3719,0.162,1.3791,16.94,-127.75,11.9,8,6
-0.0849,-0.0078,1.6333,-12.95,53.06,-16.73,8,8
-0.588,0.1366,0.9638,-1.61,143.22,-6.58,3,7
-0.9379,0.021,0.4817,-3.43,100.66,-10.15,4,8
-0.8467,0.0483,0.2059,0.91,37.52,-7.77,10,8
-0.7022,0.1362,0.1366,11.48,-42.14,-2.17,3,3
-0.9814,-0.0078,0.2342,8.4,-112.56,5.67,3,7
-0.8642,-0.0673,0.7466,21.35,-191.59,25.9,8,5
0.6744,0.7749,1.9403,-38.64,-21.7,-13.51,4,3
-0.4046,0.4504,1.1907,-4.34,120.75,-4.41,6,11
-0.9858,0.143,0.7452,-18.69,122.57,-11.83,12,16
-0.8286,0.0849,0.3489,-1.12,62.65,-8.75,4,10
-0.8642,0.0527,0.2059,-2.94,-4.97,17.71,8,4
-0.8111,-0.0786,0.2664,-2.03,-83.51,12.74,3,8
-1.4455,-0.1625,0.6134,22.82,-149.73,31.15,7,3
0.5602,1.0292,1.9779,25.69,-77.98,-5.39,7,0
-0.2991,0.1776,1.4079,25.55,126.07,-10.92,6,7
-0.9936,0.1459,0.793,0.91,140.49,-10.57,3,4
-0.8394,0.0937,0.366,-0.56,77.28,-12.32,7,16
-0.7891,0.0459,0.1532,25.41,0.84,-4.27,3,8
-0.8325,0.1391,0.2123,-14.28,-71.19,-3.15,7,10
-1.139,-0.1488,0.4553,-2.87,-146.37,22.4,12,3
-0.4577,0.1308,1.3352,15.82,-164.57,24.85,7,5
-0.6344,-0.4451,1.2595,-69.3,45.43,-8.12,5,7
-0.5314,0.1454,0.9467,-23.52,135.73,-5.46,6,7
-0.8813,0.1688,0.5017,-17.36,93.87,-9.66,0,5
-0.8574,0.0649,0.2743,-2.45,28.21,-2.87,3,8
-0.693,0.0132,0.2679,-4.34,-48.86,6.3,5,10
-1.0033,-0.4948,0.284,13.65,-121.94,30.66,5,4
0.0434,0.4216,1.6543,22.26,-93.17,6.09,5,3
-0.2201,-0.2455,1.2981,-2.94,76.86,-14.42,12,4
-0.7588,0.1498,0.8267,-4.55,119.42,-3.99,6,4
-0.8755,-0.0503,0.4387,-4.41,68.74,-4.48,8,9
-0.8218,0.0903,0.2386,-5.88,3.78,2.03,6,8
-0.7896,0.0034,0.2855,-10.08,-65.59,13.23,9,5
-1.1517,-0.2235,0.4612,18.55,-141.54,32.34,9,12
-0.1913,0.65,1.5767,47.88,-141.33,11.41,8,5
-0.0581,-0.6764,1.2673,21.49,86.38,-9.38,2,3
-0.6388,0.0346,0.8276,-6.02,127.82,-5.74,11,3
-0.9145,-0.0532,0.4929,-25.27,72.03,-9.73,6,6
-0.8325,0.0468,0.264,2.38,10.57,-3.99,1,4
-0.7832,0.0542,0.3167,-5.88,-65.17,4.55,8,10
-1.1078,0.0322,0.5495,36.33,-133,20.23,11,6
-0.1581,0.6061,1.585,57.05,-152.18,6.3,7,6
-0.2313,-0.5217,1.1844,-48.16,67.83,-9.45,7,12
-0.6534,0.0298,0.8208,-15.26,118.16,-8.19,6,7
-0.8374,0.1186,0.5061,-21.77,74.41,-10.99,8,6
-0.8662,0.0415,0.3299,-1.75,-2.94,-1.4,8,6
-0.8174,0.0346,0.3396,0.77,-73.64,4.62,3,8
-1.2322,0.1337,0.5646,17.64,-156.45,22.4,7,8
0.7603,0.9906,2.2175,-2.94,-74.97,1.54,9,6
-0.2704,0.0034,1.4059,42.63,110.95,-10.36,7,11
-0.8442,0.0639,0.855,3.01,132.16,-10.29,5,8
-0.8237,0.0176,0.4182,9.73,74.69,-10.15,7,4
-0.8008,0.0298,0.2069,10.99,10.01,-2.52,9,0
-0.711,0.0776,0.2601,-10.57,-60.27,6.37,8,8
-1.1985,-0.265,0.4641,-19.53,-139.86,30.17,9,4
-0.6364,0.5124,1.3893,32.2,-171.36,19.46,3,3
-0.4192,-0.591,1.2342,-62.93,68.25,-7.63,4,6
-0.4895,0.1859,0.9877,-33.6,144.27,-5.81,0,4
-0.9658,0.039,0.5817,-34.65,100.73,-10.22,3,8
-0.8374,-0.0132,0.2689,5.67,40.88,-5.25,3,6
-0.7022,0.1332,0.2328,9.94,-34.58,1.61,6,9
-0.9233,-0.163,0.3455,-16.03,-105.35,8.82,7,10
-1.3864,0.2167,0.5954,33.53,-193.83,29.33,4,7
1.6992,0.6364,1.8695,-3.92,-18.69,-24.36,9,29
-0.0864,-0.1771,1.3278,86.24,132.3,-6.16,10,4
-1.0019,-0.0161,0.7169,-5.95,128.45,-11.55,8,5
-0.8076,0.0429,0.3548,14.49,70.84,-7.42,10,6
-0.7759,0.0771,0.1942,13.72,-3.5,-0.14,8,5
-0.8062,0.08,0.3021,-22.26,-74.48,6.51,8,9
-1.3444,-0.5578,0.4568,10.5,-168.56,33.95,8,0
0.0586,0.9174,2.6132,45.85,-203.07,20.79,12,12
-0.1357,-0.8125,1.2493,16.73,90.65,-6.23,10,9
-0.7442,-0.0176,0.754,-20.23,120.19,-9.31,0,8
-0.8252,0.0805,0.507,-23.17,67.76,-9.45,6,8
-0.8462,0.022,0.2913,4.13,1.33,-0.28,5,8
-0.8359,0.0649,0.3528,-10.36,-69.23,8.26,3,9
-1.3781,0.1327,0.7364,20.51,-140,32.27,7,2
0.8901,0.9467,2.2936,26.95,-120.54,10.29,3,11
-0.2762,-0.6856,1.239,32.83,70.49,-7.14,3,3
-0.5309,0.0527,0.9667,-21.84,135.24,-9.59,7,6
-0.9404,0.0425,0.588,-20.65,97.44,-15.05,6,9
-0.8257,0.0185,0.2967,18.69,33.67,-8.26,6,8
-0.7788,0.1186,0.246,4.76,-33.67,-4.06,6,4
-0.896,0.0054,0.3265,-12.25,-106.61,7.14,6,2
-0.6759,0.303,0.8018,13.79,-180.74,35.84,6,6
-0.2103,0.7847,1.4469,-33.53,84.91,-22.82,6,33
-0.5236,0.3723,1.137,67.69,116.69,-3.5,5,8
-0.9662,0.02,0.7745,-17.64,106.26,-5.95,6,5
-0.8228,-0.1235,0.3963,4.76,52.71,-4.83,9,0
-0.8091,0.0864,0.2874,6.02,-9.87,0.98,7,8
-0.8564,0.06,0.347,-8.33,-77.42,7.91,2,8
-1.1322,0.0029,0.7808,14.21,-146.86,26.88,8,5
0.5144,0.978,1.991,1.26,-76.02,-7.77,6,9
-0.1937,-0.1215,1.3132,57.12,96.32,-6.65,1,5
-0.8062,0.1693,0.8491,-10.43,125.86,-9.03,0,7
-0.8247,-0.2333,0.4231,8.75,70,-6.79,6,2
-0.8452,-0.0488,0.2479,10.57,7.35,17.43,7,8
-0.7266,0.1864,0.2635,2.94,-62.16,5.88,6,5
-1.036,-0.0922,0.4953,-20.65,-123.69,19.25,3,10
-0.5236,0.4309,1.2444,34.86,-164.92,17.85,2,2
-0.2269,-0.7984,1.2332,-18.41,74.41,-4.34,1,3
-0.5915,0.082,0.8813,-35.7,130.13,-7.49,8,3
-0.8764,0.2186,0.5812,-18.55,87.5,-10.57,3,5
-0.8115,0.04,0.3289,9.31,27.51,-4.83,8,0
-0.8203,0.082,0.3231,-0.49,-40.88,1.54,8,0
-0.875,0.0449,0.3767,-12.53,-106.82,12.25,6,12
-0.6451,0.2713,0.8603,26.46,-159.6,30.94,6,0
-0.5695,0.4377,1.3225,-63.35,15.75,-19.32,7,8
-0.5383,0.5485,1.1214,6.58,121.24,-2.87,8,0
-0.8994,0.0117,0.6417,-22.47,103.25,-8.68,6,13
-0.8067,-0.0151,0.3616,12.39,46.62,-1.61,8,5
-0.7764,0.0849,0.283,0,-23.03,6.23,5,3
-0.8477,0.0605,0.3626,-16.17,-90.86,15.61,3,8
-0.5856,0.0356,0.5402,41.02,-155.68,31.43,8,9
0.365,0.486,1.4938,-59.29,22.89,-27.79,3,11
-0.4114,0.4704,1.1819,6.37,125.93,-4.69,8,5
-0.9174,0.144,0.6705,-9.03,109.06,-13.09,5,0
-0.7759,0.0468,0.4055,18.9,53.34,-6.37,2,3
-0.7486,0.0415,0.2635,27.09,-20.3,2.1,7,3
-0.7227,0.2982,0.3099,-14.56,-81.27,-0.63,12,3
-1.6992,-0.4895,0.6456,10.78,-166.39,25.13,4,6
0.9077,0.978,2.3731,-10.57,-83.86,-4.69,3,3
-0.2201,-0.1196,1.3503,70.7,102.97,-1.89,4,8
-0.954,0.1488,0.8125,-18.27,119.98,-12.39,4,8
-0.8081,-0.0039,0.408,19.39,64.89,-8.96,12,5
-0.8355,0.0659,0.242,20.44,4.55,-2.59,4,6
-0.7466,0.1503,0.2747,-2.59,-67.34,1.4,9,3
-1.0194,0.0376,0.4646,-26.25,-122.15,15.05,9,7
-0.4002,0.3206,1.3469,7.98,-140.98,19.18,10,6
-0.3265,-0.7178,1.1907,11.41,63.91,-0.28,6,8
-0.6178,0.0795,0.835,-15.19,112,-2.66,1,4
-0.8086,0.1693,0.5524,-22.12,72.17,-3.29,3,3
-0.814,0.0937,0.3362,-2.52,17.92,2.24,3,9
-0.792,0.0532,0.347,-8.19,-55.72,11.97,7,7
-1.0575,-0.3167,0.4704,11.41,-119.63,27.51,3,8
-0.4153,0.5963,1.2644,37.1,-149.17,12.6,4,5
-0.5041,-0.1972,0.9658,-17.92,38.99,-2.38,6,4
-0.8926,0.1728,0.7462,21.98,40.67,8.96,9,8
-1.1995,0.4241,0.652,-39.62,-74.97,20.44,4,4
0.3182,0.4631,0.8779,223.44,-18.62,-11.27,6,15
-1.0404,0.5954,1.036,18.34,-61.18,27.93,8,74
-0.304,0.0346,0.8281,4.2,-46.76,22.26,7,19
-0.0844,0.0903,0.7242,-0.7,-28.49,-11.2,10,17
-0.2884,0.1459,0.8355,8.61,-10.57,-7.7,8,47
-0.2694,0.2245,0.8184,0.98,13.65,-2.94,4,53
-0.0752,0.2347,0.6974,-12.32,42.35,0.84,8,32
0.2357,0.1498,0.5607,-38.22,110.25,-13.3,7,12
-3.4428,-1.5211,0.2401,-198.31,-153.3,51.17,8,39
-1.2673,-0.3601,0.7666,17.85,-33.46,5.25,11,19
-0.5212,0.0508,0.8662,14.14,-29.82,8.26,0,44
-0.347,0.1547,0.8145,1.47,-15.05,4.69,8,51
-0.3445,0.0966,0.8057,0.63,-2.03,3.99,8,56
-0.1113,0.161,0.7076,-2.52,27.44,-6.58,14,38
-2.1467,0.4865,1.6826,-83.23,52.78,-31.43,6,9
-0.1972,0.2484,1.0721,-40.25,63.28,-7.28,12,7
-0.6368,0.0747,0.9306,2.38,101.78,10.01,9,20
-0.8472,0.0346,0.6095,-43.4,80.5,37.45,8,9
-0.8106,-0.0478,0.4172,-70.35,31.22,62.37,4,11
-0.7686,0.1562,0.3714,-93.1,-28.77,73.36,6,9
-0.7935,-0.2621,0.466,-63.77,-91.63,88.34,0,11
-0.7945,0.3777,0.7735,-4.48,-125.37,59.64,5,10
0.0908,0.5285,1.5518,-52.22,19.04,-30.94,9,6
-0.5573,0.4626,0.9843,67.34,103.46,-65.73,4,14
-0.9482,0.0024,0.6769,60.06,74.27,-88.9,5,14
-0.9789,-0.2298,0.3972,125.86,-15.26,-80.36,7,7
-0.5212,0.3631,0.304,96.11,-92.89,-80.15,5,7
-0.1205,-4.1646,0.3723,150.22,-77.98,-18.2,8,3
-0.8896,0.142,0.3572,-74.34,-38.43,43.61,8,6
-0.0771,-0.3953,0.1806,-32.27,-65.94,-3.92,1,4
-1.2995,2.7567,1.1122,486.85,-179.48,42.49,5,6
0.0161,-0.5924,1.4362,104.86,8.96,-35,9,9
-0.507,0.3143,1.0838,61.81,98.91,-53.83,7,10
-0.8965,0.0176,0.5924,30.17,81.41,-60.48,7,10
-0.8921,-0.0639,0.2801,72.1,0.7,-25.62,3,10
-0.5832,0.2669,0.2908,27.02,-81.97,11.69,9,14
0.124,0.0844,0.103,39.34,-5.46,26.95,7,7
-2.3058,-0.3362,2.5313,-664.16,-145.81,-7.91,0,14
0.7574,2.9641,1.5514,63.63,-61.18,-3.92,10,5
-0.4695,-0.1039,1.2337,137.62,94.43,-3.64,8,6
-0.9819,-0.2801,0.6432,-18.83,71.75,-0.42,2,6
-0.814,0.001,0.1752,84.49,42.91,67.34,8,7
-0.7315,0.4709,0.2767,-60.55,-27.02,77,4,8
-0.2342,-0.1357,0.2264,-26.6,-29.12,65.45,3,9
-2.2814,1.7324,0.5109,65.24,-50.96,-16.38,7,10
-2.3922,-1.7256,2.1033,-88.2,-154.77,8.4,5,9
0.1176,0.691,1.647,-116.48,13.3,-30.03,4,3
-0.856,0.8335,0.9199,10.43,103.11,-47.81,8,8
-1.2873,-0.1327,0.4992,95.97,73.22,1.19,4,5
-1.0004,1.0424,0.2752,-7.07,32.48,22.82,12,8
-0.4817,-0.1981,0.2591,-8.54,28.98,52.99,7,8
-0.488,0.1142,0.3065,7.35,38.85,51.31,3,9
-1.8832,1.5177,1.4357,-152.25,-82.18,-5.46,5,12
-0.5422,0.8096,1.2888,-14.28,-88.06,-17.99,4,3
-0.5949,-0.9228,1.1936,65.66,-80.92,-25.62,7,12
-0.2362,0.4309,1.364,34.93,53.27,-22.61,11,12
-0.9496,-0.1044,1.0116,54.25,101.92,-14.21,3,4
-0.7993,-0.0595,0.4275,117.53,60.34,-2.03,5,5
-1.0072,0.6886,0.3597,-26.88,2.45,-12.81,6,7
-0.3065,-0.1659,0.2528,3.99,-23.31,20.09,6,4
-0.3406,0.0249,0.3148,4.13,-16.31,23.73,2,5
-1.7846,0.9008,0.405,28.21,-12.6,11.55,10,5
-1.5928,0.4397,1.7363,-205.31,-100.38,15.12,3,11
-0.0351,1.0887,1.4411,-44.31,12.25,-18.62,6,13
-0.7052,0.0517,1.0614,53.55,77.84,-12.95,6,0
-0.8223,-0.0449,0.5993,85.05,57.75,-5.18,10,8
-0.6061,0.3543,0.3738,25.06,44.94,-3.15,7,5
-0.7676,0.1044,0.3704,-39.76,13.86,6.44,9,4
-0.7676,0.0381,0.3294,-46.62,-29.4,28.84,7,8
-0.9101,0.2079,0.2655,-52.29,-50.61,43.05,7,6
-0.6168,-0.7598,1.3937,-65.73,-48.86,22.61,5,8
-0.5353,0.1479,1.2088,-1.54,52.78,-23.31,11,8
-0.8267,0.0464,0.8213,47.46,77.77,-16.38,6,5
-0.7784,0.0932,0.4953,70.28,54.18,-4.27,6,6
-0.7891,0.1908,0.2674,22.82,28.91,3.36,3,8
-0.7657,0.0454,0.2274,-23.87,-24.22,21.28,2,7
-0.8316,0.162,0.2289,-56.14,-70.14,40.53,3,7
-0.9687,0.3567,0.3035,-94.92,-113.54,46.83,7,8
-0.6895,-0.368,1.2576,-55.16,-137.97,24.08,7,9
-0.0517,-0.1069,1.4977,2.87,-5.39,-33.32,0,0
-0.5592,-0.0151,1.1502,54.32,108.57,-31.92,2,4
-0.9526,0.1972,0.5734,79.45,95.62,-20.3,6,3
-0.7696,0.1679,0.3338,73.78,47.11,-10.57,4,6
-0.7623,0.2206,0.2811,5.04,-1.61,-0.56,7,2
-0.7847,0.1113,0.2621,-35.42,-55.58,18.55,5,12
-1.0033,0.2655,0.2508,-73.01,-104.72,26.25,10,6
-0.4607,0.0024,1.259,-24.43,-124.25,6.86,6,8
0.0888,-0.2186,1.423,21.63,31.99,-34.93,5,7
-0.6832,0.082,0.9321,44.87,98.7,-8.47,6,8
-0.975,0.161,0.5251,39.55,72.73,4.27,0,11
-0.7715,0.2889,0.2699,14.77,19.46,7.49,6,3
-0.7901,0.0727,0.2918,-44.59,-33.46,15.47,5,3
-0.936,0.9331,0.5856,-53.9,-72.45,17.29,1,8
-0.2347,0.3924,1.4059,13.23,-26.67,-24.08,4,6
-0.5031,-0.1444,1.1566,55.58,82.11,-28.63,10,7
-0.9135,0.1054,0.6666,54.53,91.28,-13.65,8,6
-0.8696,-0.0268,0.3616,48.09,41.86,-10.08,7,5
-0.7564,0.1986,0.225,16.17,2.87,-2.8,3,7
-0.7564,0.0771,0.2489,-10.5,-44.1,14.42,8,9
-0.8896,0.265,0.2552,-50.4,-86.87,26.25,6,7
-0.9404,-0.4338,0.913,-52.15,-128.8,19.95,0,4
-0.2948,-0.0454,1.6612,-9.8,-2.03,-24.29,6,4
-0.547,-0.0727,1.1522,41.09,121.45,-11.06,5,0
-0.896,0.1854,0.6461,48.51,114.52,3.36,9,0
-0.7588,0.1615,0.3167,53.2,64.12,13.37,3,4
-0.7325,0.3109,0.1703,-13.23,13.93,11.83,7,9
-0.6378,0.0229,0.1806,-48.37,-41.09,24.15,6,6
-0.8398,0.2367,0.1283,-89.74,-84.35,41.51,9,12
-1.8051,0.1547,1.1429,-220.22,-126.42,51.87,10,8
-0.1815,0.8467,1.504,-61.81,-64.4,51.87,6,14
-0.3904,-0.0483,1.3732,-49.77,91.35,33.95,8,5
-0.8882,-0.0439,0.8008,10.99,124.67,49.28,3,3
-1.0136,-0.4197,0.405,4.62,57.47,66.43,3,4
-0.5919,0.3665,0.2567,-24.15,-7.56,43.89,1,8
-0.6895,0.0795,0.244,-19.53,-70,-40.81,5,8
-0.8764,1.526,0.1601,-72.8,-58.87,33.67,4,5
-0.144,1.1248,1.5104,159.81,-46.34,-73.01,8,3
-0.5095,0.7022,1.0995,225.75,34.65,-136.78,0,8
-0.9736,0.1645,0.508,284.55,9.31,-131.67,7,3
-0.6822,0.3396,0.3221,207.97,-24.78,-131.46,4,10
-0.6817,0.2435,0.3684,137.27,-54.11,-102.34,12,4
-0.7452,0.1732,0.4177,42.56,-75.74,-76.93,10,8
-0.7203,0.7096,0.5832,-105,-64.82,-54.95,3,8
-0.7554,-1.9769,0.9101,11.2,-70,34.16,6,7
-0.651,-1.1546,1.2751,-149.45,52.43,117.53,3,5
-0.7969,-0.0981,0.9492,-173.53,111.02,157.64,3,6
-0.7383,0.0029,0.6959,-190.05,94.29,146.79,7,4
-0.5627,0.0068,0.5788,-176.4,62.44,154.98,1,12
-0.6427,0.2791,0.5295,-163.31,41.65,162.26,8,6
-0.7442,0.2879,0.4963,-152.81,11.97,143.85,10,4
-0.8159,0.3626,0.4543,-75.74,-30.17,118.93,9,10
-0.6076,1.0409,0.6212,-41.93,-58.45,39.2,3,3
-0.6739,0.5309,1.1014,-34.44,-43.19,-84.56,10,7
-0.4729,0.3079,1.1575,246.68,-16.66,-189.98,10,12
-0.7549,0.7564,0.774,260.19,6.09,-232.61,3,5
-0.7525,0.2416,0.6237,270.69,-2.59,-223.86,3,5
-0.8125,0.0595,0.5134,247.03,-21.63,-173.74,3,6
-0.5319,0.1157,0.4636,183.26,-32.97,-54.67,6,8
-0.6876,0.2196,0.5197,76.37,-66.92,4.83,9,8
-0.8067,-0.5007,0.6027,-89.11,-98.63,-46.55,10,0
-1.0053,0.1889,0.7676,-122.01,-121.52,-3.08,8,5
-0.3811,-0.1581,1.462,-102.9,-62.79,87.43,6,8
-0.2484,-0.0034,1.3161,-136.99,79.17,134.19,11,9
-0.6969,-0.3816,0.9736,-112.35,127.05,154.42,6,4
-0.7784,0.083,0.7608,-148.96,113.12,149.66,0,8
-0.6446,0.039,0.5929,-83.79,75.95,172.83,6,7
-0.6105,0.49,0.4285,-140,51.73,149.1,6,7
-0.6754,0.2694,0.4275,-164.29,2.59,110.04,9,4
-0.7891,0.5275,0.4304,-106.68,-52.85,97.37,6,8
-0.547,0.8916,0.7086,-92.33,-77.77,32.76,4,9
-0.1972,0.1903,1.5201,64.4,-38.15,-125.02,12,7
-0.4548,0.3889,1.0609,173.32,29.4,-179.97,2,7
-0.8125,0.4538,0.7105,196.63,31.85,-190.19,0,8
-0.7686,0.2557,0.547,208.81,7.14,-186.27,5,2
-0.7828,-0.0927,0.51,203.98,-17.22,-156.66,7,5
-0.6466,0.2528,0.425,153.58,-38.71,-76.65,3,8
-0.5958,0.1859,0.4982,26.46,-61.04,-6.58,3,8
-0.6349,-0.2967,0.6725,-111.86,-60.13,-40.32,6,4
-0.8306,0.9794,1.3527,62.16,-63.91,33.39,8,8
-0.5129,-0.3309,1.2371,-122.43,36.54,123.76,3,2
-0.8203,-0.1932,0.9867,-145.53,82.74,155.26,7,5
-0.8257,-0.0571,0.771,-101.85,67.83,174.09,5,3
-0.6212,0.1986,0.5563,-79.45,40.88,152.6,6,7
-0.7813,-0.1166,0.5246,-109.41,-14.35,-32.48,8,8
-0.5461,-0.2298,0.5187,-16.59,-50.68,-164.92,6,13
-0.5793,1.2629,0.5763,98.77,-93.17,-79.66,7,6
-0.2484,2.9226,0.7847,54.18,-34.44,79.38,12,7
-0.5998,1.1409,1.321,68.74,32.97,-35.49,6,7
-0.8223,0.6051,0.8764,62.37,78.05,-87.08,4,0
-0.8921,0.1674,0.387,99.68,47.46,-107.52,7,2
-0.8862,0.2303,0.387,162.89,1.19,-87.57,8,8
-0.5187,0.2908,0.3699,132.44,-44.03,-2.52,4,3
-0.3665,0.263,0.3728,102.62,-38.85,85.68,6,5
-1.6182,1.9447,1.1707,-139.37,-113.75,9.24,8,8
-2.6235,-3.1081,2.0193,-223.23,-164.85,-11.76,7,2
-0.673,-0.5905,1.2532,-160.3,59.15,63.49,7,1
-0.8242,-0.467,0.9692,-40.46,121.03,114.38,3,6
-0.6071,0.0268,0.6295,-2.17,85.75,140.28,8,8
-0.6041,0.4695,0.3909,-63.84,65.59,128.73,6,4
-0.6573,0.2474,0.3118,-149.45,14.35,53.48,4,5
-0.5705,-0.2406,0.3924,-93.59,-32.2,40.18,6,5
-0.7437,1.8549,0.5724,-21.42,-21.63,99.4,8,5
-0.4412,0.0566,1.485,13.93,3.64,-52.57,8,8
-0.8037,0.3289,0.8184,201.88,16.45,-102.48,5,8
-0.895,0.1684,0.4202,269.15,-22.96,-104.3,7,6
-0.6037,1.0282,0.1625,194.25,-53.48,-72.24,12,8
-0.4836,0.3523,0.3235,6.58,-74.34,2.94,5,8
-0.0786,-0.1352,0.2908,66.22,-28,45.29,3,7
-0.5017,-1.0472,0.1708,-351.82,-104.58,-114.24,0,6
-0.6393,-1.0995,1.2483,-214.27,-50.68,-19.32,8,0
-0.2489,0.4763,1.2991,-39.27,49.7,89.39,5,4
-0.853,-0.5461,1.0375,-72.52,110.25,137.27,4,7
-0.6637,0.0956,0.7237,37.66,82.25,158.2,0,6
-0.734,0.7427,0.3475,-60.13,65.45,88.06,2,5
-0.7593,-0.3182,0.3279,-138.81,-15.33,-77.14,3,8
-0.7974,0.995,0.5607,-45.78,-68.81,-82.6,10,10
-0.6876,1.9505,0.7047,-80.71,-31.64,62.86,9,6
-0.4597,-0.9145,1.2898,107.59,-34.93,-15.96,4,4
-0.6534,-0.1376,1.0707,66.85,45.22,-72.87,8,2
-0.9008,0.1976,0.693,176.82,27.02,-95.69,2,3
-0.8154,0.3167,0.3162,234.78,-15.4,-110.32,0,8
-0.711,0.5607,0.1283,188.44,-54.18,-77,1,8
-0.326,0.3743,0.2054,78.54,-57.33,8.33,8,4
-0.3509,-0.4172,0.4753,-208.53,-60.9,-39.41,10,8
-1.85,-2.6616,1.6309,-177.87,-65.87,1.75,3,8
-0.6666,-0.7105,1.1297,-158.06,93.1,100.52,11,9
-0.8789,-0.0737,0.9472,-59.57,114.59,129.57,0,3
-0.6173,0.4046,0.5612,-33.95,86.66,128.59,5,8
-0.6832,0.5012,0.2689,-102.97,56.7,89.53,6,12
-0.7476,0.2747,0.2352,-119.63,-10.57,14.77,3,8
-0.61,0.5339,0.347,-129.15,-65.59,-4.55,4,1
-1.0736,0.9955,0.6061,-49.63,-81.97,16.66,8,6
-0.3089,0.2406,1.4269,73.92,-58.8,-117.46,7,6
-0.5783,0.5065,0.9916,194.11,10.57,-194.74,0,7
-0.7486,0.2401,0.7642,193.27,27.93,-182.28,6,6
-0.8018,-0.0425,0.5876,200.76,1.89,-114.31,9,7
-0.6266,0.1405,0.3172,172.34,-38.22,-10.85,2,7
-0.5734,0.6993,0.2996,34.3,-40.39,73.43,8,11
-0.5832,-0.1108,0.5793,-192.29,-22.82,15.47,8,8
-1.3093,-2.4815,1.2605,-34.16,-70.21,65.66,3,4
-0.6159,-0.3797,1.1439,-198.24,61.81,123.27,7,5
-0.6188,0.0634,0.9648,-103.53,96.11,145.95,5,7
-0.8306,-0.2957,0.8125,-58.17,74.06,157.64,0,9
-0.7666,0.3231,0.3816,-40.81,35.98,76.23,3,4
-0.7749,-0.3245,0.3684,-88.83,-50.05,-138.11,4,8
-0.4621,-0.1015,0.1376,50.96,-44.31,-203.56,3,9
-0.5026,1.2625,0.6002,159.74,-58.8,12.32,12,8
-0.7642,-0.6759,1.2132,-95.41,-33.39,3.15,3,4
-0.6446,-0.4211,0.9077,27.09,48.16,-50.33,5,4
-0.8921,0.1991,0.6842,64.96,47.81,-95.55,4,1
-0.8769,0.122,0.4368,132.23,16.8,-96.53,6,8
-0.7037,0.5031,0.2279,162.75,-23.73,-36.12,5,3
-0.6852,0.5685,0.4065,35.7,-43.82,10.57,7,5
-0.4856,0.1035,0.7178,-75.81,-50.75,-31.85,6,8
0.0205,-1.7983,0.8233,144.83,-69.44,-0.98,6,9
-0.3709,0.3904,1.2483,-76.51,55.02,103.74,4,8
-0.8784,-0.4529,0.8867,-129.71,104.51,144.83,8,5
-0.9306,-0.0337,0.7183,-133.56,74.2,133.84,0,1
-0.8296,0.2216,0.4324,-80.22,38.08,64.05,2,4
-0.7408,-0.1893,0.4934,-62.65,-24.36,-91,5,16
-0.1615,-0.4299,0.1859,115.29,-62.44,-48.44,0,9
-0.3553,1.6128,0.9862,-27.79,-33.18,57.96,5,8
-0.4514,0.9994,1.2849,-30.31,6.65,-21.56,7,6
-0.8345,0.3489,0.8999,39.9,54.39,-58.17,2,4
-0.8481,0.2972,0.5719,84.28,31.22,-71.89,5,9
-0.8189,-0.0791,0.3274,148.19,-27.72,-61.46,6,6
-0.6705,0.5383,0.2381,70.28,-73.71,-1.4,2,7
-0.1318,-0.0512,0.1928,63.98,-30.17,25.69,3,12
-0.2664,-1.0472,0.7701,-136.22,-88.41,-102.2,0,3
-0.6939,1.4474,1.5675,183.4,-74.2,13.72,5,0
-0.3006,1.3064,1.2995,-120.61,76.86,86.03,5,7
-0.8642,-0.0054,0.8584,-123.83,90.37,113.82,7,4
-0.8164,0.0991,0.6237,-129.92,76.86,110.25,0,6
-0.7398,0.0566,0.4177,-95.55,24.43,58.94,9,7
-0.8452,0.0454,0.3733,-54.46,-24.99,-52.85,5,10
-0.7222,1.0082,0.4963,54.53,-30.87,21.49,8,0
-1.0526,0.1391,0.9799,69.72,-43.05,-10.43,8,5
-0.6456,0.6046,1.0146,89.32,14.98,-71.05,9,7
-0.8164,0.2377,0.731,109.41,25.97,-96.32,6,12
-0.8062,0.1898,0.547,121.94,-5.46,-95.06,5,3
-0.7149,0.428,0.1737,161.07,-56.21,-21.07,0,7
0.1366,0.0249,0.1244,23.8,-45.08,34.02,8,6
-1.1556,-1.465,1.6621,-440.79,-97.58,-99.75,7,8
0.5778,2.2263,1.5235,-66.71,30.45,50.54,3,0
-0.5588,-0.4704,1.0311,-129.64,88.83,111.44,7,7
-0.8477,-0.12,0.7008,-109.48,90.79,116.34,5,6
-0.7818,-0.1191,0.5597,-125.65,51.45,110.18,0,4
-0.7096,-0.103,0.3577,-85.82,1.75,-18.62,12,5
-0.6002,-0.2611,0.366,49.49,-62.79,-62.65,6,6
-0.7042,1.3547,0.3748,105.42,-33.11,10.29,5,0
-0.7574,0.0654,0.9252,49.77,-31.5,-15.54,7,10
-0.6715,0.4002,1.0111,85.68,26.74,-75.74,8,3
-0.8691,0.2137,0.6622,117.74,36.96,-109.69,8,6
-0.8764,0.2855,0.5002,145.11,-2.17,-106.61,2,3
-0.9043,0.3831,0.3518,138.67,-56.84,-19.67,0,7
-0.1147,0.223,0.2416,78.26,-46.2,38.15,7,4
-2.2916,2.3278,1.4586,-44.03,-78.4,-54.67,0,9
-1.5318,-2.987,0.5505,15.4,-174.79,-44.94,9,11
-0.5402,-1.3908,1.0555,-121.59,6.02,46.48,9,5
-0.6334,-0.8799,1.0268,-95.97,89.32,106.96,3,8
-0.8457,-0.0605,0.6178,-124.46,75.46,111.65,0,6
-0.6159,-0.2147,0.4602,-125.02,32.13,84.35,0,6
-0.7696,-0.2933,0.4494,-74.55,-16.73,-42,7,9
-0.5758,-0.143,0.3909,73.01,-47.95,-10.29,2,0
-0.7798,0.6852,1.015,-55.79,-23.52,71.4,8,6
-0.4768,0.2786,1.2498,-31.92,24.43,-19.88,3,3
-0.8428,0.3445,0.8838,47.67,76.02,-53.83,6,3
-0.9209,0.2372,0.5285,100.17,32.06,-69.37,8,0
-1.0765,0.854,0.1962,197.47,-35.42,-30.03,6,7
-0.2308,0.2655,0.2523,56.21,-82.32,-7.91,4,8
-0.143,-0.0229,0.203,126.21,-5.25,21.7,3,8
-1.7885,-1.2683,1.5982,-119.21,-83.65,-105.35,3,13
0.4363,1.9418,1.7929,-125.65,10.71,38.78,3,6
-0.6451,-0.7798,1.015,-203.28,93.94,123.06,3,7
-0.8203,-0.1825,0.672,-93.52,91.07,131.6,3,8
-0.6032,0.0888,0.6007,-96.53,62.93,148.4,5,5
-0.6295,0.2728,0.4075,-130.9,35.91,92.75,5,3
-0.6403,0.1684,0.4368,-110.18,-8.19,14.28,7,0
-0.815,-0.0376,0.8955,-70.56,-32.76,53.97,6,5
-0.672,0.9872,0.9272,16.1,-23.87,-13.86,8,7
-0.7174,0.4338,0.9892,163.66,7.7,-96.6,5,6
-0.7588,0.3026,0.6276,196.56,-13.79,-153.16,8,3
-0.8667,0.1425,0.4656,238.98,-45.99,-142.17,3,0
-0.547,0.5924,0.2689,182,-64.19,-72.73,8,6
-0.5241,0.4407,0.4704,45.08,-67.48,-21.35,0,7
-0.3284,-0.0337,0.8642,-122.78,-54.6,-78.4,6,12
-0.0361,-1.5235,0.8452,205.94,-31.22,16.17,4,3
-0.4104,0.0249,1.2517,-174.51,72.24,140.91,6,9
-0.8408,-0.3436,0.8804,-174.72,97.3,177.73,4,3
-0.8364,0.1166,0.73,-168.77,73.57,161.77,6,4
-0.7662,-0.1776,0.5261,-116.69,29.05,78.19,7,8
-0.6812,-0.2172,0.4778,-88.97,-34.72,-117.18,8,8
-0.3709,0.6037,0.51,55.3,-42.98,-69.93,5,4
-0.8286,3.314,1.0146,40.46,-29.61,99.61,8,10
-0.7935,1.5284,1.1702,102.27,9.1,-6.93,7,5
-0.8599,0.1449,0.856,66.36,51.87,-59.08,3,7
-0.9091,0.2479,0.4714,100.87,0.21,-104.72,3,1
-1.2073,0.2006,0.3665,194.88,-91,-114.17,7,5
-0.3001,0.4856,0.2377,156.87,-96.39,-89.95,0,3
-0.2108,0.1703,0.2991,128.94,-9.59,1.68,12,5
-0.2582,-1.4806,0.936,-457.73,-73.5,-86.1,0,3
-0.5524,2.3907,1.5255,251.3,-83.37,11.2,6,0
-0.4114,1.4689,1.3771,-52.92,89.6,116.55,6,8
-0.9516,-0.1488,0.8633,-140.21,99.75,156.31,5,8
-0.7867,-0.2411,0.6193,-166.04,57.96,108.36,8,1
-0.8843,-0.3626,0.6271,-159.39,-24.64,-64.05,4,5
-0.4831,-0.1757,0.5022,-29.61,-54.25,-171.29,0,5
-0.4592,0.5153,0.5534,88.34,-18.55,-75.6,5,3
-0.5334,1.4713,1.0282,136.08,50.33,97.3,5,9
-0.6949,0.0429,0.9043,-6.37,22.19,-31.15,7,5
-1.1117,0.5344,0.669,74.34,21.14,-81.41,8,5
-0.8111,0.2269,0.4636,44.38,-13.51,-110.32,3,0
-0.5885,0.3026,0.427,169.19,-45.78,20.16,8,5
-0.2601,0.591,0.3543,92.19,-7.21,76.86,6,7
-0.3836,0.022,0.5051,41.09,28.35,127.54,0,1
-0.225,-1.5762,0.6285,-129.78,-52.01,-46.97,8,7
-1.1043,-0.0551,1.3205,391.79,-46.83,-47.39,8,3
-0.3909,0.2679,1.1712,133,63.21,54.81,5,9
-0.7852,-0.1196,0.9189,-121.03,78.75,120.33,8,8
-0.813,-0.059,0.5856,-140.35,43.19,127.96,0,0
-0.8491,-0.3294,0.569,-166.74,-13.86,-5.25,9,8
-0.5578,-0.7027,0.5646,18.13,-53.97,-165.2,3,0
-0.6412,0.5612,0.5661,126.91,-60.06,-151.83,7,8
-0.8696,1.4459,0.5431,203.98,10.22,12.95,4,5
-0.4451,-0.9828,0.7696,-101.15,-10.78,-60.34,4,8
-1.0165,1.1361,0.7735,75.88,21.63,-137.9,8,8
-0.6798,0.0464,0.529,94.01,13.02,-130.83,5,6
-0.6871,0.7056,0.4704,129.08,-3.57,-19.18,8,3
-0.3455,0.2743,0.5339,41.72,17.57,89.74,5,7
-0.4255,-1.098,1.0033,-81.41,-33.25,37.03,0,3
-0.5383,-0.2704,1.442,60.83,-35.42,22.4,8,4
-0.4304,-0.2313,1.1971,-161.35,67.27,136.71,0,8
-0.6734,-0.1396,0.9194,-170.94,81.34,170.03,6,6
-0.7056,-0.0356,0.6051,-181.86,56.14,160.93,9,4
-0.8052,-0.3577,0.6661,-146.58,-11.55,35.98,3,5
-0.4968,-0.3309,0.5915,-34.65,-51.94,-127.61,10,10
-0.6178,0.6427,0.4753,168.77,-32.27,-110.95,0,4
-1.3664,3.1603,0.8013,156.59,32.27,77.7,10,13
-0.895,0.7232,1.0097,64.33,18.13,-49.42,6,10
-0.9701,0.488,0.6168,90.23,38.22,-105,7,6
-0.8003,0.3704,0.467,105.14,0.14,-126.21,8,10
-0.6705,0.405,0.4372,190.61,-44.59,-25.9,12,10
-0.3006,0.4704,0.4099,111.09,-14.21,31.43,5,4
-0.3431,0.1342,0.5807,81.2,24.57,92.26,8,5
-0.185,-1.2434,0.8028,-15.96,-50.82,-5.81,11,8
-0.9618,-2.5644,1.5113,9.45,-54.67,-22.68,7,5
-0.406,0.0581,1.1273,-49.35,31.71,83.44,4,4
-0.7608,-0.4094,0.9384,-128.24,57.82,152.32,5,9
-0.9428,-0.0654,0.7588,-182.35,25.2,105.28,8,7
-0.427,-0.6578,0.6734,-116.97,-13.09,-5.81,6,0
0.019,-1.0892,0.3777,78.54,-3.64,-28,5,5
-0.6422,1.1722,0.8969,95.48,45.5,94.78,8,6
-0.6983,-0.2918,0.6881,-19.53,46.41,26.88,3,8
-0.9745,0.4538,0.7383,-8.05,39.48,-56.28,6,3
-0.914,0.428,0.385,112.56,7.14,-88.97,14,3
-1.0146,0.0278,0.4738,148.68,-71.4,-92.96,8,5
-0.1854,0.3826,0.3226,113.05,-61.11,-22.19,4,4
-0.3509,0.325,0.4738,98.35,3.15,69.72,1,6
-0.4216,-1.5006,0.7003,-172.48,-73.43,-46.9,9,7
-1.0507,1.5958,1.6324,296.8,-60.41,18.62,6,8
-0.2786,1.2659,1.3376,-213.29,103.88,128.94,3,8
-0.7598,-0.2987,0.9052,-163.17,102.2,166.46,12,12
-0.9243,-0.144,0.6364,-159.11,70.28,154.84,7,9
-0.7466,-0.0493,0.547,-137.06,21.21,40.46,0,0
-0.4348,-0.2996,0.5324,-11.2,-40.88,-50.96,7,1
-0.5778,0.4446,0.5305,54.67,-37.59,-64.89,7,9
-0.7203,1.0331,0.6339,108.43,-2.52,21.49,3,4
-0.6544,-0.6037,0.6334,37.45,-19.88,-62.79,4,3
-0.8213,0.4919,0.6173,124.81,-19.88,-140.42,3,7
-0.7954,0.3123,0.5968,164.01,-21,-150.08,8,11
-0.671,0.3553,0.5817,131.46,-25.13,-89.11,12,4
-0.3982,0.2684,0.7481,67.55,-41.16,-41.51,8,5
-0.1459,-0.5134,1.3122,123.97,-49.14,-88.55,5,3
-0.3802,-0.02,1.2376,-1.19,4.2,-24.01,3,5
-0.6847,0.5549,0.9775,-25.97,55.23,39.41,5,4
-0.8545,0.2923,0.5705,-159.04,53.06,167.44,12,12
-0.7881,0.1303,0.5334,-196.21,9.17,203.07,3,6
-0.1713,-0.6822,0.5197,-94.5,18.76,89.74,8,8
0.6564,-0.7915,0.4329,-82.46,-20.23,125.3,8,3
-0.6061,0.0766,1.0268,-141.19,25.34,142.59,3,6
-0.7227,0.1908,0.936,-104.58,59.99,112.35,6,6
-0.8184,0.0644,0.7466,-89.88,36.75,36.82,7,3
-0.9316,-0.3431,0.611,56.35,-35.7,-117.46,6,3
-0.5563,-0.0708,0.4904,71.33,-108.85,-205.45,4,9
-0.163,0.7354,0.3401,69.3,-39.48,-195.51,5,7
-1.5767,0.0112,0.8564,32.34,12.95,-7.35,9,7
-0.7471,-0.0932,0.8706,74.69,8.96,-85.19,8,8
-0.8091,0.6403,0.7803,108.29,25.34,-117.67,7,12
-0.8486,0.5876,0.448,62.09,21.49,-62.16,6,0
-0.8067,0.2508,0.5148,71.82,-7.84,72.31,5,8
-0.3884,0.2181,0.4573,44.52,-6.23,86.59,0,9
-0.3084,0.1357,0.8057,-142.1,-38.85,-1.96,7,6
-1.1673,-3.2032,2.0769,-183.68,-99.61,-63.98,8,5
-0.733,-0.6866,1.4269,-229.39,22.54,19.11,6,0
-0.7647,-0.6168,1.0087,-132.09,81.62,71.68,5,1
-0.8228,-0.0127,0.649,-100.1,60.2,135.1,1,12
-0.8584,0.2767,0.5817,-208.53,9.03,129.08,4,10
-0.2547,-0.7588,0.4802,-166.67,-8.12,45.57,6,3
-2.4122,-1.2498,1.3288,-200.2,-37.94,51.31,9,5
-0.9155,2.5854,0.8677,-107.94,-5.81,111.58,5,7
-0.8628,1.1029,0.9604,32.06,21,33.81,1,9
-0.7901,0.4563,0.8833,25.97,37.38,-50.47,5,6
-0.7901,0.2191,0.652,117.81,8.68,-78.61,7,3
-0.996,0.3113,0.3396,204.12,-48.93,-78.12,2,4
-0.3104,0.4812,0.3743,49.7,-102.27,-57.89,6,4
-0.1366,0.0434,0.3636,89.46,-33.32,8.33,10,9
-2.9675,3.6151,1.3386,-133.49,-150.36,-96.32,8,3
-1.323,-0.8359,1.4308,574.91,-13.93,-109.9,7,6
0.0273,-1.8861,1.0385,-94.15,61.39,-3.22,4,5
-1.0707,-0.0952,0.833,-39.48,100.59,10.64,12,8
-1.3557,0.5773,0.4333,43.54,26.53,88.06,14,3
-0.4782,-0.0068,0.3875,-103.67,-22.05,78.33,5,8
-0.3021,-0.1991,0.4226,29.54,-24.5,46.2,7,9
-0.3889,-0.0005,0.4895,30.45,-37.03,-4.27,5,8
-0.914,0.4963,1.26,-341.6,-84.07,-2.94,5,5
-0.7559,-0.446,1.0575,130.97,20.58,11.13,6,5
-1.2546,-0.5651,0.8496,155.89,6.65,-1.33,0,2
-0.2884,-0.0844,0.6193,-52.36,-32.2,-34.72,5,4
-0.2406,0.2352,0.4778,12.67,-1.26,-9.38,9,7
0.3226,0.0068,0.2977,0.21,74.41,-5.67,4,7
3.0705,-1.9686,-0.0249,-25.13,43.47,-5.95,7,8
-0.6944,0.1708,1.1678,-24.5,70.84,-9.24,0,8
-0.8789,0.2308,0.8569,-20.93,90.72,-11.62,0,8
-0.7686,0.0386,0.551,2.8,59.99,-3.71,7,5
-0.7325,0.162,0.4124,1.4,4.55,6.58,4,3
-0.6783,0.1625,0.3904,-25.62,-46.06,12.25,7,8
-0.832,-0.2206,0.4626,-49.28,-97.58,27.02,6,6
-0.7003,0.8789,1.1419,15.33,-112.98,35.21,10,7
-0.1103,0.1318,1.4006,-13.79,28,-16.66,8,8
-0.4982,0.0913,1.0141,-8.33,107.31,-16.1,8,9
-0.8886,-0.0586,0.6876,18.55,71.05,-10.71,2,7
-1.3601,0.5485,0.4699,94.22,-24.99,-3.08,7,4
-0.3704,-0.0039,0.3289,-29.89,-103.88,-1.54,12,0
-0.1625,-0.0098,0.286,24.08,-55.37,7.91,7,0
-0.7066,0.1967,0.5983,6.72,-59.29,10.01,8,2
0.6281,-0.8267,0.8828,-83.51,-44.1,-3.29,9,56
-0.5866,0.6168,0.8257,42.56,-11.97,14.28,6,5
-0.5968,0.4826,0.7457,-53.2,-8.96,-0.28,6,3
-0.3216,0.1352,0.55,7.28,-4.55,1.47,3,2
-0.3845,-0.0171,0.5754,6.65,-5.32,0.77,3,8
0.7613,-0.4358,1.8149,17.15,13.02,-3.92,4,13
-0.793,0.2904,0.8062,22.61,7.77,3.36,2,11
-0.6329,0.3767,1.3596,7.7,74.83,-24.15,8,8
-0.7823,-0.1932,0.8345,18.9,80.64,-17.5,12,7
-0.8784,-0.1664,0.5202,72.8,24.43,20.3,5,4
-0.649,0.428,0.3845,-55.93,-26.25,26.74,8,6
0.1713,-0.1932,0.1103,9.87,32.13,29.75,8,8
-0.5309,-3.0607,0.5036,-20.09,-69.65,-5.32,6,3
-0.608,-0.4363,1.0516,-113.54,41.58,-11.13,9,7
-0.8955,0.1298,0.7447,-6.02,69.16,-14.49,8,5
-0.876,-0.2113,0.5061,63.77,12.53,4.62,4,9
-0.7588,0.488,0.3533,2.94,-63.42,-8.19,7,7
-0.1459,-0.1108,0.244,24.22,-47.46,3.01,7,11
-0.9062,2.0945,0.9521,-344.47,-115.57,4.06,8,6
-0.1215,2.5493,1.7085,247.24,-77.42,7.49,3,7
-0.4402,0.224,1.1849,66.36,80.01,-8.33,2,5
-1.0702,-0.3338,0.7979,12.81,84.49,-7,8,7
-0.795,-0.1645,0.3011,157.57,15.68,25.83,6,4
-0.591,0.2708,0.3489,-74.48,-49.56,7.07,7,8
-0.2084,-0.1469,0.304,9.38,-30.03,31.64,4,0
-1.8998,2.7362,0.7759,-231.91,-136.43,-24.22,10,7
-0.0776,0.8028,1.6885,348.74,-81.2,-9.87,8,12
-0.528,-1.1439,0.9448,93.38,60.97,-1.75,7,3
-1.159,-0.6642,0.6417,87.99,47.46,35.42,2,7
-0.6632,1.1448,0.4738,-64.54,-48.3,-16.38,9,12
-0.3177,-0.5061,0.3772,43.26,-21.98,5.32,6,9
-0.6285,0.2342,0.507,-4.41,-46.13,3.22,6,7
-0.4563,0.0956,0.5588,17.71,-46.13,8.19,3,3
0.2943,-1.4264,0.9697,15.75,30.38,2.66,3,40
-0.507,0.1576,0.8711,19.18,-8.19,3.99,8,1
-0.4582,0.5397,0.6622,-10.15,-12.39,-3.36,1,6
-0.2948,0.0303,0.5461,0.21,-6.09,6.23,4,9
-0.9965,0.6578,0.9292,-2.31,31.43,-8.19,6,5
-0.6388,0.2908,1.0634,9.1,57.68,-16.31,5,8
-0.6759,-0.0015,0.8398,0.49,78.54,-14.49,4,8
-0.7969,0.0024,0.5729,-2.87,57.54,-7.49,3,6
-0.7574,0.0615,0.4485,2.87,9.03,3.57,3,7
-0.7769,0.0634,0.4319,-11.62,-39.9,11.97,6,4
-0.7945,-0.2176,0.9862,11.76,-67.41,23.45,5,12
-0.3499,0.1645,1.2342,4.55,-13.3,-3.43,3,0
-0.5817,0.0766,1.0443,9.59,53.06,-10.85,6,8
-0.9828,-0.3172,0.507,70.35,0.28,12.88,5,8
-0.6647,0.7642,0.406,-50.4,-37.17,6.09,3,3
-0.1269,-0.1225,0.2704,23.38,-14.63,14.28,5,0
-0.4031,1.4801,1.7348,-454.93,-62.65,29.47,0,0
0.1752,2.7269,1.4064,41.79,12.32,-1.54,2,0
-0.5661,0.3445,1.0228,42.84,59.71,-9.87,5,8
-0.8847,-0.2869,0.6554,40.81,17.92,6.37,4,4
-0.7613,0.6612,0.4236,69.44,-19.11,17.85,9,4
-0.5139,-0.2137,0.4392,-30.52,-56.35,23.38,11,9
-0.5983,0.4856,0.5812,63.84,-12.18,-18.2,7,12
0.1157,-0.914,1.465,154.42,-31.5,-17.78,12,5
-0.3914,-0.0102,1.0814,58.87,71.61,-6.58,3,7
-1.035,-0.1005,0.8413,-1.26,80.64,-4.06,8,11
-0.7588,-0.1171,0.385,83.51,13.58,14.84,3,8
-0.7144,0.3226,0.4304,-52.78,-56.84,7,0,0
-0.183,-0.1913,0.3455,11.48,-48.79,9.8,7,8
-1.667,-0.9789,0.9199,-348.74,-129.43,38.5,12,10
0.0229,1.1395,1.2766,-66.64,24.5,-9.8,8,8
-0.429,0.7017,1.0668,38.29,77.56,-6.09,8,4
-1.0067,-0.0049,0.7832,-2.52,65.38,-0.63,5,0
-0.6032,0.1308,0.3806,54.88,-3.01,14.49,6,3
-0.6876,0.3309,0.3255,-46.06,-42.63,2.94,10,6
-0.3558,-0.0259,1.3274,194.18,-31.99,0,6,3
-0.4856,0.1118,1.1766,25.13,50.89,-11.69,0,5
-0.7242,0.0195,0.8286,-18.62,80.5,-10.43,10,4
-0.7925,-0.0878,0.5524,-16.38,49.56,-4.27,4,3
-0.8047,0.042,0.4114,-9.59,3.99,3.57,4,0
-0.7915,0.0376,0.3972,-0.14,-47.32,14.49,8,5
-0.8574,0.2611,0.6598,-3.64,-87.5,18.34,7,1
-0.2923,0.6803,1.361,22.33,-63.14,11.76,5,6
-0.4631,0.1015,1.2098,-8.19,47.25,-13.3,2,7
-0.852,-0.0322,0.8481,-0.84,80.29,-8.26,9,5
-0.7676,-0.0688,0.5305,24.78,43.12,-3.85,7,7
-0.7359,0.1796,0.3836,31.29,-15.61,0.49,9,2
-0.6739,0.1937,0.4085,3.36,-58.52,-6.02,5,5
-1.3986,0.3436,0.5475,-70.14,-97.09,1.4,6,7
0.0337,1.3518,1.625,40.95,-67.06,7.7,2,7
-0.3162,0.1781,1.2551,5.88,68.67,-9.38,2,7
-0.8037,0.0747,0.8369,-18.27,97.44,-4.97,9,6
-0.8101,-0.083,0.4577,16.31,44.31,-0.98,4,8
-0.6705,0.124,0.3645,25.06,-19.81,5.88,6,4
-0.7105,0.286,0.3865,-9.87,-73.57,-4.34,6,5
-1.5528,-0.8974,0.6442,-53.41,-147.07,31.15,2,8
0.4031,0.5802,1.7832,-64.89,4.13,-19.11,8,7
-0.3919,0.2757,1.1107,5.11,91.28,-7,0,10
-0.9453,0.0869,0.7618,-10.64,83.58,-2.38,3,10
-0.835,0.0669,0.4011,1.89,30.31,3.85,6,8
-0.6803,0.0688,0.3309,2.87,-29.75,12.04,8,9
-1.0038,0.1005,0.4338,-41.65,-83.93,15.89,8,9
-0.2103,0.9399,1.4015,60.41,-85.89,16.31,0,3
-0.3216,-0.0566,1.3274,2.1,54.95,-18.76,10,5
-0.6876,0.1078,0.8579,-9.03,106.4,-13.44,7,4
-0.7706,-0.0537,0.5134,1.82,67.97,-5.53,2,7
-0.8325,0.002,0.3157,24.01,8.68,4.83,9,6
-0.7247,0.2147,0.3172,0.42,-50.33,8.05,5,8
-1.0268,-0.0522,0.427,-42.91,-102.27,11.76,8,7
-0.5817,0.7598,1.3923,67.83,-109.62,19.6,0,2
-0.1552,0.0244,1.404,-7.77,43.68,-15.19,3,8
-0.5578,0.0966,0.9199,-6.51,105.56,-13.3,6,16
-0.8159,0.0268,0.6168,-10.71,73.71,-10.43,10,7
-0.8174,-0.0029,0.3289,23.31,11.55,2.45,8,7
-0.692,0.1776,0.3328,-3.92,-46.27,6.23,6,4
-0.9984,-0.2011,0.4255,-42.49,-98,14.7,6,7
-0.5129,0.547,1.3737,49.84,-104.09,21.84,3,1
-0.1884,0.0249,1.4074,-13.44,38.01,-18.83,5,8
-0.5827,0.164,0.9643,-8.82,111.72,-14.49,4,7
-0.7901,0.0234,0.5612,-0.7,79.45,-9.1,5,1
-0.8169,-0.083,0.3377,32.55,24.71,3.29,8,7
-0.6847,0.2118,0.3172,9.31,-37.66,8.33,3,6
-0.7364,0.2411,0.3748,-38.71,-84.91,2.38,6,6
-0.5056,-0.774,0.5187,19.25,-163.66,28.21,8,8
0.9745,0.4875,1.8271,-49.98,5.67,-14.98,7,3
-0.4128,0.4421,1.1741,37.03,123.13,-10.36,7,6
-0.9975,0.0542,0.7442,4.41,91.42,-8.4,4,3
-0.8574,-0.0073,0.4826,-3.36,47.53,-2.45,7,0
-0.7735,0.2025,0.3299,6.79,-19.46,4.83,5,6
-0.7413,0.2006,0.3748,-26.53,-67.06,5.74,0,8
-1.0624,-0.5114,1.0292,7.49,-127.82,26.18,12,11
-0.1942,0.2982,1.3508,3.71,15.89,-18.13,6,6
-0.5529,0.122,0.9804,-10.57,103.04,-13.65,0,3
-0.8677,-0.0942,0.5778,10.22,64.75,-6.93,7,4
-0.7325,-0.0205,0.2806,61.39,4.41,5.53,7,2
-0.4455,0.1371,0.2743,-3.78,-73.36,-9.31,4,3
-0.6861,0.427,0.1669,35.77,-17.78,-7.63,3,10
0.2801,-2.0984,0.6061,113.96,-113.54,35.14,5,5
-0.2577,-0.2113,1.2776,-134.82,19.18,-9.45,10,8
-0.5324,0.3709,0.9838,-47.18,102.69,-9.31,8,4
-0.833,0.0493,0.6549,-2.52,75.39,-6.51,9,2
-0.7662,-0.1889,0.3787,45.78,20.16,8.33,5,7
-0.6198,0.3494,0.3211,21.14,-41.79,13.09,2,3
-0.7032,0.2274,0.385,-52.22,-79.94,3.36,3,8
-0.0444,-1.4215,0.5475,30.17,-126.84,12.88,0,7
-0.3011,-0.3514,1.2908,-93.66,22.47,-13.65,7,10
-0.5568,0.2938,0.9482,-29.12,101.78,-9.38,5,8
-0.8374,0.041,0.6324,-1.61,75.39,-5.18,7,10
-0.7213,-0.0966,0.3636,41.58,23.1,4.69,7,7
-0.6573,0.2079,0.3567,10.99,-34.09,8.47,8,5
-0.7515,0.324,0.386,-33.11,-77.07,4.27,4,3
-1.341,-1.2493,1.0053,-62.51,-157.57,29.19,5,4
-0.0171,0.1523,1.5484,-87.5,1.12,-12.88,6,5
-0.5724,0.163,0.9848,-20.86,103.18,-10.01,6,3
-0.8491,0.0361,0.6344,1.05,77.35,-5.81,7,4
-0.7266,-0.0771,0.3567,38.85,19.81,2.87,3,7
-0.6124,0.1962,0.327,9.66,-35,4.34,1,10
-0.7042,0.2669,0.4143,-39.48,-77.28,0.7,5,8
-0.9633,-1.1795,0.692,-5.25,-160.51,25.41,3,4
0.101,0.0381,1.5352,-81.41,8.68,-14.42,3,7
-0.55,0.1313,0.9428,-20.09,107.66,-8.19,5,7
-0.8023,-0.0117,0.5919,2.03,80.64,-3.15,8,4
-0.7359,-0.0551,0.3684,23.38,29.68,3.99,3,5
-0.6373,0.0971,0.3279,10.78,-38.5,9.24,7,2
-0.7671,0.3133,0.368,-34.51,-82.04,7.28,0,7
-1.0067,-1.1375,0.6041,-7.35,-159.81,29.33,9,0
0.1435,0.1645,1.5543,-71.4,2.66,-13.72,3,3
-0.3997,0.3133,1.0712,-1.68,85.33,-10.85,7,8
-0.9477,-0.1152,0.7466,3.78,69.02,-5.81,8,8
-0.7505,-0.0659,0.3977,23.8,21.42,-0.84,8,10
-0.6895,0.2113,0.3445,5.53,-28.63,3.43,10,3
-0.7198,0.2381,0.387,-46.83,-65.8,2.73,8,3
-0.5988,0.5388,1.2385,148.82,-86.59,17.64,5,7
-0.2689,0.0459,1.3005,17.29,36.82,-13.02,6,1
-0.5797,0.1513,0.8862,-10.5,92.82,-8.61,2,8
-0.8184,0.0161,0.6041,-2.03,64.19,-2.03,8,0
-0.7686,-0.061,0.4046,6.51,14.56,3.5,5,4
-0.692,0.0839,0.3597,3.92,-42,11.06,3,7
-1.0014,0.305,0.4309,-38.71,-85.05,12.25,5,6
-0.4158,0.0566,1.2171,133.07,-106.89,20.16,3,8
-0.3089,-0.2645,1.2751,-15.75,36.61,-15.82,8,7
-0.5944,0.1166,0.9096,-20.09,95.55,-6.79,4,6
-0.8228,0.0127,0.5929,-0.28,62.23,-1.68,8,4
-0.8047,-0.103,0.3919,16.31,6.72,4.69,0,8
-0.6515,0.2367,0.3167,9.66,-49.77,8.05,0,8
-1.1956,0.7261,0.6071,-80.15,-93.03,1.75,8,6
-0.2738,1.7773,1.6011,125.16,-80.57,4.55,2,6
-0.3211,0.0122,1.2234,45.5,69.16,-9.1,10,7
-0.7379,0.1078,0.8081,-13.37,94.78,-10.92,0,6
-0.8477,-0.0346,0.4704,0.98,39.62,-7.63,9,8
-0.733,-0.1366,0.2933,21.42,-24.57,3.85,0,8
-0.7144,0.3582,0.2879,-4.34,-75.32,3.08,5,11
-0.8286,0.6046,1.3044,119.42,-107.17,19.88,4,7
-0.2806,-0.0956,1.2849,-8.4,23.1,-8.89,6,8
-0.6071,0.0898,0.8896,-19.18,82.04,-2.94,8,4
-0.9004,-0.1601,0.6276,-2.73,47.46,1.4,6,1
-0.7418,-0.062,0.3826,26.74,-7.7,10.57,4,9
-0.6549,0.3782,0.2943,-6.79,-54.11,6.51,10,10
-0.8032,-1.7402,0.7393,-79.87,-107.31,3.22,7,12
-0.5573,-0.1147,1.1663,-94.01,27.65,-11.34,5,7
-0.6315,0.2591,0.9223,-32.48,85.82,-11.97,6,7
-0.9038,0.0322,0.6281,-11.69,55.79,-7.56,8,5
-0.794,-0.2484,0.3294,36.75,-10.43,10.36,7,11
-0.5168,0.3192,0.2284,7.77,-63.07,5.67,6,5
-1.219,1.3113,1.139,-194.74,-88.9,3.36,5,6
-0.4221,2.0013,1.6387,188.93,-73.43,7.49,8,10
-0.4616,0.063,1.1331,56.07,51.24,-4.9,4,7
-0.8135,0.022,0.8169,-3.22,66.78,-6.65,7,4
-0.8203,-0.0742,0.5368,12.04,28.77,0.14,5,7
-0.731,0.0327,0.326,45.57,-28.14,13.65,9,7
-0.7008,0.5095,0.3396,-25.97,-67.13,5.39,13,5
-0.242,-1.6919,0.5407,32.2,-126.49,8.05,7,4
-0.3845,-0.3904,1.1927,-101.22,35.56,-12.25,3,8
-0.5095,0.3894,1.0253,-35.42,89.04,-7.63,5,12
-0.9194,-0.0034,0.6744,-4.34,64.82,-5.46,7,1
-0.8638,-0.0854,0.4402,11.34,8.54,2.24,2,8
-0.6822,0.2015,0.3143,23.38,-40.95,7.7,0,6
-0.7554,0.6212,0.4324,-52.22,-75.25,-1.68,0,10
-0.0537,1.6055,1.6114,95.55,-77.84,7.42,6,5
-0.326,-0.0083,1.2024,48.09,67.48,-7.63,0,5
-0.7735,0.1342,0.8198,-8.4,93.59,-8.61,6,3
-0.7862,-0.0664,0.5192,-1.4,53.97,-4.69,9,9
-0.7959,-0.0551,0.3528,10.43,-3.22,0.84,8,8
-0.7096,0.1781,0.3499,10.22,-57.12,6.51,12,9
-1.0516,0.062,0.6817,-44.73,-102.76,10.99,5,0
0.3719,1.1658,1.7509,-1.75,-79.73,2.17,7,6
-0.3201,-0.1283,1.1761,45.15,73.01,-8.54,2,0
-0.7652,0.1113,0.8384,-12.18,102.06,-6.65,0,8
-0.7989,0.0752,0.5344,0.98,57.26,-3.92,12,5
-0.7862,0.0903,0.3484,19.11,2.45,3.15,6,1
-0.711,0.1845,0.3338,0.98,-56.14,5.53,3,4
-1.5548,-0.6778,1.2869,-67.2,-115.29,28.98,6,3
0.0215,0.3616,1.5406,-50.05,-34.09,-3.78,5,9
-0.3675,0.0332,1.1366,-0.56,70.28,-6.37,3,5
-0.8896,0.0976,0.8472,-21.28,80.08,-6.58,2,0
-0.8281,0.0947,0.4856,11.13,29.82,-0.28,5,7
-0.7071,0.122,0.3465,26.04,-22.61,7.7,9,8
-0.71,0.3367,0.3567,-32.62,-66.78,2.87,5,10
0.0278,-1.0878,0.5627,114.52,-104.86,14.56,3,8
-0.1947,-0.2094,1.2537,-33.88,15.26,-14.84,2,3
-0.5397,0.205,1.0194,-16.59,87.08,-7.7,12,3
-0.7696,0.0346,0.6598,-11.06,68.46,-6.79,8,0
-0.8452,0.0556,0.4402,0.84,20.44,-2.59,5,5
-0.7017,0.0483,0.3333,26.6,-44.03,8.61,8,10
-0.873,0.4211,0.4455,-36.19,-81.41,2.31,4,8
-0.6354,0.731,1.401,140.07,-110.95,15.47,5,1
-0.49,-0.3836,1.0629,-0.07,44.87,-9.66,3,4
-0.7266,0.0268,0.8047,-16.17,91.56,-4.55,9,4
-0.7993,-0.0351,0.5636,-8.26,54.39,0.21,0,6
-0.7837,-0.0195,0.3714,2.45,0.28,5.95,5,6
-0.7227,0.2586,0.3772,-4.48,-56.14,10.43,5,12
-1.4459,-0.6427,0.8179,-8.54,-130.55,27.44,7,7
0.3338,0.3597,1.6124,-34.72,-18.13,-9.38,8,9
-0.3694,0.1913,1.0936,-2.1,68.74,-6.72,7,8
-0.8003,0.1137,0.7696,-10.85,74.97,-6.44,10,5
-0.7662,0.0795,0.5012,6.79,32.48,-0.42,5,6
-0.8003,0.0298,0.3723,-1.26,-23.17,4.83,7,6
-0.8115,0.1176,0.4934,-6.51,-73.64,11.41,7,3
-0.4973,0.612,1.2049,56.56,-83.44,15.12,4,8
-0.3304,0.1518,1.1605,0.7,23.73,-11.13,12,2
-0.6344,0.2074,0.8852,-12.46,68.39,-6.58,3,5
-0.7823,0.0356,0.6085,0.14,43.89,-5.88,3,1
-0.7725,0.0498,0.4372,7.14,-4.76,2.45,3,3
-0.772,0.1767,0.4236,-3.71,-54.11,7.49,8,8
-0.6149,-0.7125,0.632,22.75,-110.88,15.82,8,5
0.2089,0.3148,1.4694,-20.58,6.37,-13.86,8,4
-0.3948,0.2469,1.0907,-10.36,76.37,-5.11,6,9
-0.8189,0.1684,0.7901,-20.02,74.76,-5.74,8,4
-0.8101,0.0029,0.489,7.21,30.45,-0.56,3,5
-0.7632,-0.0244,0.3792,10.15,-29.68,6.79,7,3
-0.8491,0.2718,0.4148,-8.75,-74.9,9.24,12,4
0.0005,1.2576,1.5274,49.14,-59.64,8.12,12,4
-0.3343,0.1815,1.2224,-14,60.76,-8.54,0,6
-0.6944,0.122,0.8218,-16.03,88.13,-5.46,2,6
-0.8325,-0.1,0.5519,-6.58,45.36,0.14,3,11
-0.7559,-0.1362,0.3367,20.86,-15.47,9.38,0,11
-0.71,0.4143,0.3611,-14.7,-72.45,6.79,7,3
-0.6193,-1.1951,0.5636,-14.91,-149.73,14.7,5,6
-0.2069,0.1825,1.2937,-80.43,16.38,-18.41,6,3
-0.4939,0.4333,1.076,-16.94,83.37,-4.97,6,2
-0.9228,0.1435,0.7486,-19.74,67.34,-5.11,9,10
-0.7671,0.1015,0.4319,9.38,16.1,-1.05,9,8
-0.7696,0.1269,0.3899,3.43,-43.05,3.99,3,3
-1.321,-0.405,0.9941,-35.21,-95.34,19.53,5,2
-0.0102,0.3216,1.5001,-0.91,-24.15,-3.08,1,6
-0.467,-0.0171,1.0863,-0.49,65.45,-6.72,10,7
-0.8374,0.0869,0.8106,-16.31,77.49,-4.55,4,10
-0.7925,-0.0473,0.49,8.05,36.4,-0.35,6,9
-0.7452,-0.08,0.3294,16.17,-21.98,7.21,4,4
-0.7642,0.3128,0.365,-12.95,-68.39,7.21,8,0
-0.1479,-0.773,0.733,78.33,-105.28,10.99,4,14
-0.246,-0.0488,1.2107,6.72,17.08,-10.85,8,1
-0.5578,0.1854,0.9199,-4.62,80.92,-6.51,8,4
-0.7457,0.1137,0.6276,-3.57,62.65,-6.58,0,4
-0.8101,0.0664,0.4646,5.67,12.18,-1.68,6,6
-0.7261,0.1381,0.3304,27.02,-45.99,7.63,9,8
-0.9179,0.346,0.5461,-46.97,-93.38,0.7,8,6
-0.224,1.3649,1.5782,61.74,-80.99,11.9,6,8
-0.3377,0.1796,1.2278,8.26,60.34,-6.72,8,3
-0.6817,0.1747,0.8345,-16.03,90.09,-5.95,6,7
-0.8028,-0.0078,0.5358,2.24,48.37,-0.98,8,7
-0.8145,-0.0425,0.3558,3.29,-6.51,3.43,5,5
-0.7623,0.2601,0.3484,6.37,-62.79,8.54,4,5
-1.4952,-0.449,1.3049,-60.13,-113.47,24.92,7,7
0.121,0.4114,1.5509,-50.61,-18.06,-7.7,3,5
-0.3884,0.0756,1.0912,-7.91,75.53,-6.02,8,6
-0.8438,0.0337,0.6881,-8.96,70.56,-6.93,6,0
-0.8169,0.0878,0.4465,5.46,23.66,-1.26,7,0
-0.7027,0.0883,0.3411,24.99,-37.52,8.82,6,5
-0.7476,0.4343,0.3953,-27.79,-75.04,2.1,2,5
-0.4494,1.3932,1.5367,100.52,-89.39,11.76,7,0
-0.3309,0.1366,1.2098,25.27,50.89,-5.81,8,3
-0.6378,0.1674,0.8159,-11.97,82.46,-4.55,9,8
-0.8115,-0.0151,0.5451,12.46,44.59,-0.56,5,3
-0.7427,-0.0859,0.3606,32.27,-14.21,7.63,0,3
-0.711,0.4246,0.3684,-4.27,-61.81,5.46,7,8
-1.6475,-1.3313,1.4123,-172.62,-133.35,26.32,6,2
0.0444,0.6583,1.4372,-130.34,22.61,-11.69,7,10
-0.6178,0.2918,1.0248,-9.94,81.06,-3.15,9,3
-0.9033,-0.0312,0.7227,-7.07,65.94,-3.08,5,6
-0.8652,0.0303,0.448,13.72,7.63,7.56,3,5
-0.6432,0.304,0.3265,20.72,-46.27,10.57,7,7
-0.9135,0.6202,0.4524,-63,-85.19,-2.45,3,5
-0.3943,1.0526,1.6612,208.18,-94.5,-0.28,5,5
-0.5998,-0.6529,0.9633,35.21,46.06,-6.09,2,10
-0.6871,-0.0327,0.7823,-12.81,77.49,-6.51,8,5
-0.8389,-0.0991,0.5588,3.99,36.4,-2.03,7,9
-0.7525,0.0307,0.3992,10.57,-13.02,2.24,9,7
-0.8335,0.3855,0.466,-18.76,-59.43,1.75,8,4
-0.5261,0.3396,1.1556,111.09,-67.27,10.99,1,10
-0.3138,0.326,1.1917,-2.45,32.27,-7.28,8,1
-0.611,0.0908,0.8394,-10.29,68.6,-5.25,6,8
-0.8808,-0.0717,0.6246,9.38,37.94,0.63,8,8
-0.8091,-0.0107,0.4294,14.98,-12.18,9.03,7,7
-0.7222,0.4534,0.3802,-17.36,-63.56,7.21,7,5
0.243,-1.323,0.6959,103.11,-88.69,3.01,10,3
-0.4963,-0.5807,1.0438,-53.83,24.57,-7.7,8,10
-0.6276,0.1718,0.8745,-19.95,77.77,-4.27,9,11
-0.8799,-0.0542,0.6246,-0.07,47.39,-1.54,9,4
-0.8057,0.04,0.4397,14.28,-6.3,4.97,2,5
-0.7032,0.3357,0.387,-11.69,-54.95,3.99,3,6
-0.6715,-1.1653,0.6773,31.64,-118.44,10.71,2,5
-0.2474,-0.0449,1.2249,-53.69,3.43,-11.27,7,10
-0.4982,0.1776,0.9897,-7.42,60.06,1.4,4,6
-0.7623,0.185,0.6925,-19.25,46.06,1.33,7,6
-0.7632,0.2318,0.4782,20.86,-6.44,11.55,4,5
-0.7954,0.1508,0.4817,-29.05,-57.68,9.52,6,3
-0.2464,0.9565,1.2991,9.94,-57.75,5.04,5,7
-0.4407,0.1118,1.1356,-2.73,49.56,-8.68,5,8
-0.6578,0.1557,0.8003,-11.55,74.69,-4.97,10,5
-0.7989,0.0834,0.5119,2.87,27.51,1.4,9,8
-0.7691,0.0673,0.3748,4.83,-25.69,5.88,5,3
-0.8486,0.3748,0.4943,-21.49,-79.8,3.71,9,4
-0.2054,1.0487,1.506,62.37,-69.16,4.97,12,10
-0.3762,0.1449,1.1766,-7.77,51.03,-5.6,4,2
-0.7027,0.0786,0.8018,-10.01,71.96,-4.97,5,10
-0.8203,0.0815,0.5309,8.89,28.7,-1.26,8,3
-0.7174,0.0171,0.3689,27.23,-27.58,4.34,6,8
-0.8457,0.4734,0.426,-24.01,-71.82,-1.61,6,3
-0.3523,0.2708,1.2654,129.92,-82.25,6.09,6,2
-0.425,-0.283,1.0834,31.78,42.14,-4.06,12,3
-0.6368,0.1581,0.8072,-7.07,78.75,-3.01,6,5
-0.7876,0.0254,0.5797,4.76,47.81,-2.17,8,8
-0.8276,0,0.365,11.9,-18.2,5.25,6,6
-0.8428,0.3533,0.4046,-3.92,-72.38,7.49,10,8
-0.3553,0.2313,1.201,112,-83.16,9.38,8,8
-0.3855,-0.162,1.1624,17.22,33.6,-6.16,3,9
-0.6295,0.1293,0.8345,-4.9,78.47,-3.78,3,7
-0.8194,0.0039,0.5768,9.73,47.39,-1.33,3,6
-0.7803,0.042,0.3919,5.18,-6.72,3.5,8,8
-0.8452,0.223,0.4055,-6.02,-65.59,8.05,0,5
-0.1352,-0.5978,0.7623,88.27,-94.5,9.1,8,6
-0.4329,-0.2664,1.1087,-4.41,20.44,-9.45,8,7
-0.6207,0.124,0.7574,-6.58,72.66,-1.75,8,5
-0.7954,-0.0434,0.6222,-3.92,49.28,-1.12,8,4
-0.7842,0.0161,0.4187,-3.43,-1.68,1.96,8,7
-0.8252,0.1181,0.3924,-1.26,-60.34,7.98,7,6
-0.2889,-0.0771,1.0799,70.42,-76.58,10.64,3,8
-0.2845,0.2377,1.2029,4.62,27.16,-8.96,8,4
-0.5758,0.1703,0.8569,-13.02,72.38,-4.97,10,7
-0.7305,0.1498,0.5998,0.98,48.23,-4.48,3,6
-0.8203,0.0171,0.4612,-0.42,2.38,-0.21,7,3
-0.7852,0.0771,0.3894,5.39,-57.12,5.95,9,9
-1.117,-0.3392,0.8564,-21.91,-114.45,19.18,3,6
0.2782,0.4119,1.5675,-22.82,-17.71,-7.7,4,0
-0.3518,0.2528,1.1185,-8.33,72.31,-3.29,8,7
-0.8106,0.1166,0.7837,-20.16,77.84,-3.71,3,10
-0.8316,0.0595,0.5095,-7.63,35.84,-3.01,9,3
-0.7671,0.0107,0.3806,0.35,-25.9,2.1,5,6
-0.8408,0.1064,0.4172,3.85,-76.79,8.47,0,4
-0.2396,0.6959,1.3903,46.06,-91.56,10.01,4,6
-0.4348,-0.3211,1.0541,14,43.54,-6.3,3,8
-0.6632,0.1815,0.795,-11.48,84.91,-3.99,0,8
-0.8154,0.1401,0.5627,-7.84,45.15,-2.52,6,7
-0.8174,0.0005,0.3919,1.61,-9.03,1.54,8,3
-0.8311,0.1928,0.4089,-1.61,-66.22,6.3,5,7
-0.6476,-0.7159,0.7344,28.7,-114.1,14.63,13,4
-0.1937,0.0249,1.3522,-20.16,8.26,-9.94,2,4
-0.5378,0.1025,0.976,-7.56,72.1,-3.22,13,2
-0.833,-0.0576,0.7144,-11.83,57.61,-3.43,0,0
-0.7881,0.063,0.4543,0.56,11.41,-1.26,4,3
-0.7496,0.1205,0.3841,9.94,-45.71,5.04,5,6
-1.0799,0.0576,1.038,-50.54,-90.02,14.84,5,5
0.3304,0.6207,1.5831,-34.23,-31.29,-2.94,4,3
-0.3572,0.1459,1.1312,4.55,60.9,-2.94,10,3
-0.7364,0.1732,0.7901,-16.03,76.93,-4.41,8,0
-0.8398,0.081,0.5251,-2.31,35.42,-1.89,6,1
-0.7852,0.0283,0.3919,3.71,-20.65,3.29,10,12
-0.8032,0.143,0.4397,-4.2,-68.88,7.49,4,5
-0.3231,0.0688,0.9638,85.68,-88.48,11.13,5,0
-0.3855,-0.0542,1.1165,5.6,23.59,-7.91,0,8
-0.6266,0.1391,0.8691,-5.81,67.9,-3.08,5,2
-0.8135,-0.1308,0.5905,10.92,39.48,-1.05,8,7
-0.7418,0.1005,0.449,1.26,-5.18,2.66,5,1
-0.8125,0.1625,0.4792,-9.1,-55.44,7.14,4,3
-0.3719,-0.122,0.7671,74.27,-87.22,12.18,5,4
-0.3455,-0.0122,1.1951,-8.05,18.06,-11.83,3,6
-0.5758,0.0664,0.9482,-3.71,67.9,-4.2,3,5
