ax,ay,az,gx,gy,gz,toe,heel
-0.5583,0.0878,0.8662,-1.12,-0.56,-0.07,4,510
-0.5592,0.0961,0.8662,-1.82,-0.49,0.21,18,479
-0.5578,0.0942,0.8608,-0.98,-0.63,0.07,21,457
-0.5622,0.0903,0.8628,-1.68,-1.12,0.14,48,433
-0.5612,0.0903,0.8579,-0.91,-1.68,0.49,43,431
-0.5612,0.0883,0.8628,-1.47,-1.96,0.77,51,426
-0.5627,0.0966,0.8579,-0.56,-1.75,0.35,65,420
-0.5597,0.0878,0.8579,-0.91,-1.61,0.28,73,389
-0.5578,0.0844,0.8584,-0.28,-1.82,0.84,81,393
-0.5627,0.0849,0.8613,0.28,-1.61,0.91,87,385
-0.5558,0.0825,0.8574,0.98,-1.05,0.91,88,372
-0.5885,0.1303,0.8433,3.64,15.4,-0.35,70,382
-0.6427,0.0634,0.8467,1.54,1.33,5.6,14,466
-0.5612,0.1889,0.8706,12.6,-4.62,5.81,5,635
-0.5841,0.1186,0.8272,2.1,-1.47,2.1,3,699
-0.5675,0.0761,0.8281,3.29,-2.8,3.22,5,720
-0.5754,0.1142,0.8423,0.49,-4.83,2.52,11,765
-0.571,0.0859,0.8413,-1.89,-7.14,4.27,5,795
-0.5661,0.1625,0.8647,-9.73,-5.04,1.61,10,826
-0.5666,0.1161,0.8486,-7.28,-5.39,2.1,10,862
-0.591,0.1196,0.8467,-13.79,-3.5,-2.59,5,864
-0.5754,0.0717,0.8545,-3.5,-0.91,-0.56,3,827
-0.5724,0.0698,0.8516,-3.71,-0.7,0.21,9,808
-0.5817,0.0815,0.8472,-4.41,-2.1,0.14,5,787
-0.5734,0.0883,0.8506,-5.95,-5.6,0.21,7,800
-0.568,0.1025,0.854,-6.37,-3.5,-0.28,7,801
-0.5207,0.0947,0.8359,-4.13,0.84,-1.68,7,803
-0.5085,0.1498,0.8711,-2.73,7.07,-6.51,47,731
-0.5285,0.0996,0.8862,-4.06,15.26,-9.03,176,534
-0.5724,0.0566,0.9116,-2.1,30.87,-14,322,127
-0.5495,0.0786,0.9697,7.21,51.8,-13.58,462,72
-0.5719,0.0312,0.8984,0.7,71.05,-10.99,556,49
-0.5924,0.0542,0.8316,-1.89,90.86,-12.25,592,31
-0.7003,0.123,0.7398,-1.4,101.29,-16.59,517,38
-0.8194,0.1181,0.69,-2.1,109.34,-26.81,328,31
-0.852,0.2089,0.8628,-22.47,120.47,-40.04,121,23
-1.0458,0.1186,1.0585,-21.7,147.07,-48.58,5,20
-1.1161,0.2147,1.3693,-39.55,156.87,-48.44,8,24
0.2923,0.3919,1.7441,-9.24,73.36,-17.85,7,18
0.0844,0.53,1.7353,33.04,-36.89,-10.99,11,19
0.0112,0.347,1.3864,55.16,-104.58,3.78,13,23
-0.4158,0.1537,1.2625,73.01,-173.18,28.07,5,11
-0.7042,0.0303,1.2185,75.6,-207.34,38.15,8,13
-0.7296,0.1176,1.0194,81.2,-232.33,26.67,6,9
-0.7749,0.3065,0.8852,44.38,-198.24,36.26,6,14
-1.648,0.2172,0.874,46.83,-144.62,102.9,5,11
-2.1472,-0.4543,0.3762,79.03,-150.64,132.86,10,13
-1.7065,-0.6085,-0.4958,34.3,-102.06,33.95,11,17
-1.5958,-0.6769,-0.9165,86.31,32.83,10.57,11,14
-0.2557,-0.7227,-0.71,-310.17,146.79,-59.64,10,196
-9.0734,0.242,3.8567,-68.88,276.71,-157.5,2,1015
-3.2408,-0.9579,0.0503,-85.33,5.11,-7.91,4,868
-0.9555,0.1025,0.8047,-59.92,13.3,-21.77,145,632
-0.6637,0.1557,0.8291,-9.73,20.93,-11.13,328,291
-0.5519,0.0288,0.9838,-12.95,43.26,-2.1,531,18
-0.4265,0.3772,1.1634,-22.61,103.88,-18.55,648,9
-0.3655,0.1347,1.0014,-21.35,188.16,-47.81,686,18
-0.6827,0.1113,0.7027,-75.95,257.46,-55.58,377,17
-1.1932,-0.1122,0.5026,-83.09,228.9,-56.63,39,15
-1.3415,-0.04,0.6534,-46.62,199.85,-40.67,10,11
-1.0463,-0.0239,0.7652,-62.72,159.11,-23.87,11,13
-0.8472,-0.0093,1.6729,-46.55,134.54,3.01,14,14
-0.5231,0.507,2.5269,77.21,16.03,-15.82,16,17
0.0185,0.4636,1.791,44.59,-82.95,-28.84,7,10
-0.5978,0.6525,1.4411,83.72,-164.22,8.47,13,14
-0.6339,0.305,1.0468,52.08,-211.61,11.9,8,9
-0.7896,0.1645,0.9877,65.17,-273.35,27.23,3,3
-1.1048,0.2064,1.0634,139.37,-326.34,38.5,6,8
-1.5572,0.814,0.8969,119.07,-344.89,96.67,5,11
-2.2014,-0.3494,0.9106,140.42,-252.77,234.5,0,11
-2.6659,-0.2206,-0.2796,57.96,-193.41,159.81,6,11
-2.418,-1.9871,-1.6094,37.87,-30.94,24.99,8,15
-2.6796,-0.8574,-1.302,-236.95,155.68,-41.93,6,39
-2.4371,1.747,2.5147,101.57,423.92,-170.52,5,1004
-3.5482,-1.7207,1.8637,-62.93,65.66,-48.72,10,977
-0.6769,-0.2377,1.1307,-35.84,22.12,-17.15,175,743
-0.6573,0.1049,0.8569,-36.4,16.31,-12.88,395,353
-0.6373,0.0293,1.0419,-1.12,43.96,-7.35,581,18
-0.2796,0.1976,1.2937,-44.66,147.7,-24.5,700,7
-0.3977,0.2186,0.8642,-27.44,240.38,-45.64,638,18
-0.9711,0.0966,0.67,-40.25,272.86,-57.12,267,18
-1.1453,-0.0215,0.5793,-39.97,214.48,-58.73,28,15
-1.401,-0.021,0.7657,-50.26,156.94,-47.04,18,16
-0.8213,-0.1776,1.5323,-59.64,134.68,-22.89,11,15
-0.8477,0.7032,2.5957,44.59,50.54,-31.22,18,16
0.3455,0.3065,1.7573,26.74,-43.96,-29.68,16,10
-0.5827,0.7193,1.5728,54.32,-130.27,2.17,3,11
-0.3172,0.3279,0.974,69.93,-193.13,32.55,14,13
-0.8857,0.1142,1.0692,84.21,-254.38,52.5,8,13
-0.9472,0.1074,0.9941,136.36,-292.18,44.1,10,16
-1.5411,0.486,1.0809,96.6,-308.07,94.64,0,13
-2.0076,-0.0464,0.7579,103.81,-271.81,202.3,4,8
-2.4293,-0.4431,0.1049,119.7,-192.99,162.33,6,11
-2.2536,-1.239,-1.2161,17.78,-77.56,42.07,10,13
-2.1511,1.059,-0.6085,3.43,136.92,11.76,3,9
2.7421,-0.9809,2.3512,21.98,339.5,-107.87,8,930
1.9359,0.6617,0.9213,-56.28,155.82,-38.43,9,1088
-1.2849,0.6788,1.3474,49.56,30.31,-28.42,7,915
-0.4299,0.3733,0.7979,12.67,26.74,-22.12,199,579
-0.5983,0.1288,0.9326,-23.31,28.28,-12.53,417,133
-0.4397,0.1279,1.1605,-2.1,72.24,-6.79,595,10
-0.3709,0.1767,1.0355,-16.87,164.08,-26.04,663,12
-0.6085,0.2089,0.7535,-49.49,223.58,-41.51,577,11
-1.2542,0.1498,0.6754,-59.92,254.1,-69.58,184,15
-1.3991,0.0151,0.8272,-42,206.29,-58.45,18,19
-1.2015,-0.1137,0.8525,-34.02,173.46,-31.99,9,22
-0.2991,0.4465,2.2921,1.89,109.06,-9.1,7,14
0.0932,0.5514,2.1623,14.56,-13.86,-24.22,11,19
-0.5632,0.5226,1.3196,111.16,-97.51,-37.87,17,10
-0.0986,0.428,1.2176,56.77,-154.91,0,16,8
-0.6437,0.4075,1.0848,92.54,-234.43,37.17,11,10
-0.7266,0.0771,1.0224,116.13,-266.7,52.85,12,10
-1.4747,0.3704,1.2366,114.8,-317.8,99.96,9,14
-1.5738,-0.2957,0.8608,98.07,-292.88,177.59,7,7
-2.6274,-0.5266,0.2455,126.14,-187.32,153.37,11,17
-2.4805,-1.5953,-1.5372,-43.68,-81.62,31.22,9,11
-2.6884,-0.5085,-1.5504,-93.31,125.3,-24.15,8,40
0.1391,0.4089,1.5894,132.86,357.91,-136.36,11,920
-0.995,-0.6417,2.0208,-177.73,72.38,-45.29,10,901
-0.3904,0.8311,0.9814,-33.46,25.2,-28.56,128,642
-0.7027,0.2752,0.8208,-0.07,20.23,-18.69,401,244
-0.5915,0.1396,0.9516,-0.42,38.43,-9.73,590,17
-0.4963,0.1781,1.2298,10.15,91.42,-14.91,687,7
-0.3797,0.1771,1.0702,-9.52,177.66,-30.59,695,9
-0.5085,0.1796,0.8828,-54.39,259.21,-44.38,508,9
-1.5948,-0.0464,0.9043,-47.81,264.67,-49.63,99,15
-1.3586,0.1157,0.954,-52.08,212.52,-46.62,10,26
-0.9897,-0.1737,1.18,-66.71,177.45,-21.49,12,15
-0.4163,0.4431,2.3897,21,72.94,-12.95,15,15
0.5241,0.3621,2.0642,55.23,-65.38,-32.2,12,20
-0.1493,0.7505,1.6694,91.35,-143.71,-37.17,7,16
-0.5563,0.427,1.3025,88.27,-208.53,8.82,11,7
-0.6739,0.3426,1.1502,67.48,-242.27,42.91,17,12
-1.199,0.1562,1.2429,112.63,-301.21,66.99,18,8
-1.3674,0.5256,1.0594,71.75,-323.33,115.5,7,12
-1.6353,0.3582,0.5666,45.36,-266.7,173.53,11,11
-2.7099,-0.3553,0.0454,113.68,-209.09,157.15,15,14
-2.4771,-0.9736,-1.344,26.74,-60.76,56.7,9,11
-2.5805,-0.2616,-1.4523,-176.75,137.06,36.26,5,15
0.2674,-0.1122,3.1003,44.66,331.1,-64.19,8,846
-1.3845,-0.7193,2.0369,-33.95,48.65,-54.6,3,941
-0.8072,-0.2591,0.7388,-45.57,27.02,-22.89,196,669
-0.7193,0.1591,0.8364,-36.89,19.39,-14.49,448,237
-0.6842,0.2743,0.9287,-11.55,31.29,-3.85,628,12
-0.368,0.1518,1.3674,-21.42,124.6,-18.34,743,6
-0.264,-0.002,0.9906,-31.64,241.71,-53.41,740,10
-0.7305,0.0927,0.5749,-56.63,286.02,-61.18,377,16
-1.1673,-0.2918,0.5617,-54.25,253.75,-53.48,44,21
-1.4908,-0.0942,0.8135,-58.59,202.44,-40.88,16,20
-0.8896,-0.2172,1.2937,-65.38,154.42,-20.3,14,24
-0.9736,0.3187,2.6054,43.12,59.15,-38.85,16,14
0.0669,0.6852,1.9203,0.35,-61.25,-39.55,14,16
-0.6271,0.6256,1.6665,69.93,-128.17,8.4,5,16
-0.4773,0.4636,1.1131,46.62,-198.94,34.23,14,20
-0.8584,0.4504,1.0868,67.76,-264.95,53.97,12,19
-0.9238,0.1903,1.0624,98.42,-293.02,75.18,17,17
-1.3605,0.344,1.2254,117.39,-324.31,105.35,16,11
-1.5958,-0.0137,0.9618,91.98,-320.11,172.34,16,16
-2.8475,-0.6095,0.3821,107.31,-225.26,156.17,15,9
-2.5703,-1.4186,-1.5845,15.12,-111.09,65.87,14,8
-2.2507,0.4416,-1.5143,81.9,113.54,4.48,15,9
0.7764,-1.566,0.8491,-42.14,254.17,-105.49,12,628
-0.304,0.3182,1.241,-219.87,48.3,-120.89,5,1008
-1.6704,0.6744,1.2444,126,8.26,-32.2,91,800
-0.7218,0.1469,0.8618,22.61,18.48,-12.32,354,447
-0.5685,0.1244,0.9511,3.01,34.16,-5.6,537,33
-0.2889,0.1659,1.198,12.6,96.81,-10.08,663,16
-0.2972,-0.0137,0.9462,38.71,199.15,-44.8,672,15
-0.7379,0.0795,0.712,-42.21,257.67,-46.9,506,9
-1.2273,-0.0698,0.5958,-63.77,246.4,-52.57,67,15
-1.1639,0.02,0.5661,-32.83,237.86,-44.24,12,24
-1.5065,0.0844,0.9228,13.09,195.37,-25.2,14,11
-1.0043,0.0942,1.405,-22.68,195.51,-27.79,15,14
-1.2571,0.9706,2.8167,86.24,22.05,-71.61,10,12
-0.0146,0.246,1.7636,47.46,-73.29,-57.82,15,21
-0.5524,0.6061,1.3771,72.59,-182.84,-3.78,11,7
-0.6393,0.3719,0.9936,68.39,-245.56,26.67,17,13
-0.8501,0.202,0.996,103.18,-305.48,57.96,16,14
-0.9555,0.2991,0.9799,136.36,-334.32,74.41,8,10
-1.7241,0.5788,1.0975,100.94,-353.08,163.94,7,13
-2.2175,-0.3675,0.7379,95.55,-292.25,245.42,14,13
-3.0276,-0.2508,-0.5939,40.67,-193.06,135.87,16,8
-2.825,-1.3928,-2.2277,-8.75,34.86,17.85,5,7
-2.1379,-1.5167,-1.0331,-129.92,261.94,-34.09,7,403
-4.7243,0.5334,1.0214,-140,52.43,-51.45,7,880
-1.2893,0.5475,1.2049,24.78,9.73,-53.83,157,637
-0.5871,0.0059,0.9067,-16.45,18.9,-17.29,536,165
-0.5524,0.2162,1.119,3.92,43.4,-7.7,686,16
-0.3348,0.2006,1.3113,-33.32,125.37,-16.52,806,13
-0.2694,0.1742,1.0199,-20.44,229.88,-51.87,812,12
-0.9106,0.1059,0.8023,-62.79,290.71,-68.74,542,8
-1.2678,-0.428,0.6212,-94.5,267.75,-62.02,95,9
-1.3766,-0.1405,0.5636,-42.28,242.9,-45.57,7,17
-1.199,0.0864,0.6871,-46.48,178.5,-41.51,11,13
-0.8306,-0.0673,1.8446,-39.55,127.89,-18.2,14,20
-0.5807,0.6159,2.2965,28.84,13.02,-40.67,17,24
-0.4753,0.591,1.7939,41.51,-88.48,-12.6,16,14
-0.9004,0.3606,1.4108,93.03,-163.1,55.44,16,11
-0.8159,0.3323,0.9862,76.09,-231.42,39.83,11,16
-1.0141,0.164,0.9321,99.05,-291.69,51.94,16,12
-0.8916,0.3538,0.9077,109.06,-294.98,82.25,13,7
-1.4684,0.4982,1.1863,118.02,-316.05,158.76,16,13
-2.0174,-0.4046,1.117,82.39,-283.15,241.85,7,7
-2.2785,-0.5153,-0.02,42,-226.59,131.11,9,9
-2.4932,-1.4025,-1.4279,83.58,-72.73,35.21,9,8
-1.5191,0.6759,-1.2927,-205.59,122.71,-6.58,11,16
-0.2225,-0.8838,2.8485,40.53,360.22,-113.54,11,929
-3.963,-0.4128,1.6812,-105.42,89.11,-83.65,2,924
-0.651,0.7696,1.0194,-85.54,32.2,-31.92,258,604
-0.815,0.3113,0.9496,-22.96,28.84,-19.95,538,156
-0.5226,0.2103,0.8804,-3.01,53.41,-4.06,689,12
-0.3094,0.263,1.2917,-31.43,142.31,-14.84,772,5
-0.2962,0.2064,0.9331,-34.65,255.36,-50.75,740,8
-1.2639,0.0171,0.733,-70.63,296.17,-69.58,238,16
-1.0302,-0.1088,0.5929,-43.96,275.87,-49.56,19,16
-1.6724,-0.1859,0.7706,-30.03,228.62,-34.23,11,22
-1.1722,-0.0893,0.8125,-34.37,180.46,-23.94,12,16
-1.2766,-0.2118,1.9525,5.25,91.91,-26.95,16,20
-0.6193,0.6285,2.2233,94.15,10.78,-66.99,9,16
-0.5119,0.5183,1.768,54.25,-132.86,-44.31,13,15
-0.8247,0.5534,1.2273,103.88,-214.48,20.16,11,12
-0.8023,0.4026,0.7828,87.43,-263.48,34.16,14,16
-0.8662,0.3704,0.7935,107.17,-293.72,95.06,13,13
-1.1531,0.3148,1.219,94.85,-303.45,157.08,15,11
-1.6938,0.6427,1.2132,52.92,-343.56,212.03,6,10
-2.5103,-0.326,0.7354,59.99,-288.4,207.27,7,11
-2.5874,-0.6612,-0.7915,46.62,-180.53,99.26,7,7
-3.1901,-1.2825,-2.0252,-40.67,58.59,23.1,5,6
-0.812,-1.6465,-1.3318,-70.14,322.42,-78.4,8,595
-2.052,0.0483,0.9599,-179.06,178.57,-97.09,8,1023
-2.0711,0.7725,1.442,138.81,5.88,-53.76,161,748
-0.57,0.1401,0.9233,-3.43,22.33,-20.16,479,320
-0.5724,0.2718,0.9862,3.43,45.36,-3.64,666,16
-0.3084,0.2533,1.3591,-5.25,124.25,-5.74,760,8
-0.162,0.0264,1.1263,-24.43,257.53,-49.42,735,13
-0.9262,0.1972,0.7305,-78.96,316.33,-66.64,313,17
-1.1619,-0.1503,0.6539,-38.78,296.66,-53.06,26,19
-1.5211,0.0264,0.8267,-34.58,239.26,-49.28,14,20
-0.7828,-0.1264,0.8013,-21.63,227.5,-25.9,12,17
-0.5285,0.2821,1.9705,-4.97,157.57,-26.81,13,16
-1.3806,0.5622,2.3522,75.95,-24.22,-18.97,14,16
-0.2264,0.3372,1.6943,56.77,-163.66,-14.63,12,14
-0.6876,0.9238,1.2995,82.25,-279.58,21.98,10,10
-1.2371,0.0303,0.7364,67.97,-293.02,23.45,14,7
-0.9282,0.2196,0.8823,114.73,-308.84,54.67,13,12
-0.9399,0.2786,0.974,136.78,-323.05,87.01,16,17
-1.6943,0.3006,0.9658,70.35,-343.14,207.2,16,7
-2.2829,-0.4548,0.3104,83.93,-255.57,234.92,15,5
-2.5966,-0.814,-0.978,11.62,-149.73,91.28,13,11
-2.6084,-0.9101,-0.7359,117.11,26.81,49.35,0,16
-0.3445,-2.7196,-1.4869,-166.95,342.16,-161.28,7,770
-0.4255,1.3923,1.3054,-180.04,134.54,-99.47,7,925
-0.1815,1.0307,1.1034,49.84,8.05,-50.89,273,616
-0.6622,0.1625,0.855,-5.11,21.28,-19.32,551,179
-0.5588,0.2869,1.0926,8.61,49.63,-6.02,714,11
-0.1796,0.0937,1.4006,-5.18,169.12,-19.88,791,13
-0.3753,0.1449,0.9409,-41.16,310.38,-59.15,700,12
-1.5255,-0.0981,0.7398,-81.76,325.08,-67.83,127,16
-1.1629,0.1098,0.5549,-52.78,308.84,-50.68,13,17
-1.4303,-0.061,0.672,-11.41,206.57,-28.63,11,20
-0.6588,0.2894,1.0775,-67.83,160.65,-26.18,9,12
-0.5451,0.6403,2.177,14.91,29.4,-28.21,3,11
-0.896,0.7686,2.1521,9.38,-89.74,-28.98,13,10
-0.4285,0.61,1.5567,108.92,-213.78,6.58,11,9
-0.3401,0.508,0.9223,71.12,-264.6,18.76,17,10
-0.7803,0.5968,0.9653,97.65,-307.37,43.05,15,13
-0.8457,0.5065,0.9677,119.98,-315.49,81.97,10,8
-1.3923,0.5597,1.3137,118.09,-341.11,161.7,9,9
-2.0535,0.0361,1.0931,63.63,-307.93,243.32,4,6
-2.6132,-0.5056,0.0376,75.74,-230.37,164.78,13,6
-2.8167,-0.895,-1.7412,24.29,-85.33,32.27,11,9
-3.0119,-1.4396,-3.2428,-71.82,130.62,-11.97,10,151
-6.1532,1.4157,3.5029,170.31,288.82,-198.45,9,976
-0.0952,-1.5045,0.0917,-76.02,70.35,-25.76,65,737
-0.6954,-0.1762,0.8364,-60.06,35.21,-25.83,440,235
-0.6154,-0.0181,0.9321,16.24,60.48,-11.69,677,17
-0.3465,0.4499,1.3522,-18.2,152.04,-8.96,785,16
-0.3289,0.3802,1.1063,-53.48,285.25,-54.39,762,9
-1.3357,0.122,0.753,-88.55,338.45,-73.15,236,15
-1.3884,0.0205,0.7291,-35.56,307.65,-43.26,19,24
-2.2599,0.0034,0.917,-31.01,203.77,-42,13,18
-0.8764,-0.042,1.2449,-62.16,140.07,-27.09,9,16
-0.1869,0.5022,2.0018,21.49,9.87,-53.27,6,16
-0.4416,0.4616,2.3668,109.76,-82.6,-40.67,13,12
0.042,1.363,1.3601,45.36,-186.41,-2.38,16,11
-0.7715,0.7164,1.3435,84.77,-203.98,55.16,13,9
-0.792,0.4329,1.0629,41.65,-261.45,60.55,20,7
-1.0238,0.448,1.0082,83.23,-307.72,77.42,10,14
-1.4596,0.7652,1.077,93.94,-330.68,106.12,5,7
-1.5894,-0.0761,0.9023,69.3,-290.43,223.72,6,9
-2.5513,-0.2089,0.4416,91.98,-229.53,204.96,6,16
-2.3907,-0.9106,-1.0716,32.9,-119.56,65.38,9,16
-2.5,-0.9819,-1.8139,-77.42,79.38,34.23,5,9
-1.0155,-2.6757,0.5739,-117.25,380.8,-111.23,12,809
-2.8348,1.5401,1.1936,-73.99,135.03,-93.45,0,903
-0.4714,0.8125,0.8184,-11.55,32.27,-48.51,333,486
-0.6515,0.1357,0.9194,-10.57,33.32,-18.41,662,16
-0.6476,0.1215,1.0975,12.88,72.73,-9.03,793,10
-0.1337,0.2255,1.2434,9.87,184.87,-26.88,830,14
-0.3001,0.2713,0.8628,-52.57,286.65,-60.34,696,14
-1.4376,0.002,0.8047,-111.23,303.59,-76.58,133,21
-1.4328,0.0063,0.6417,-40.18,285.74,-57.82,20,20
-1.4123,0.1342,0.8623,-47.74,193.48,-56.91,14,20
-0.5856,-0.0737,1.6646,-37.87,146.58,-26.95,16,19
-0.1801,0.8291,2.1238,8.68,27.86,-43.47,14,14
-0.5134,0.954,1.9959,29.75,-91.63,-1.68,13,10
-0.5758,0.3767,1.4713,95.97,-189.42,48.02,18,9
-0.6134,0.4421,1.0443,70.42,-239.33,30.45,21,12
-0.773,0.364,0.9301,83.51,-285.32,24.15,13,11
-1.1019,0.5285,0.9589,114.45,-318.15,81.13,8,15
-1.384,0.5085,1.079,121.8,-318.36,151.69,12,12
-1.872,-0.2601,0.8398,69.58,-303.94,246.89,6,5
-2.5078,-0.6163,0.205,89.11,-225.4,178.92,9,14
-2.2028,-1.0624,-1.1341,17.01,-87.15,46.48,7,7
-3.6576,-1.3664,-1.3381,-284.27,127.82,-1.19,7,77
-4.9493,1.1883,3.7239,164.99,359.94,-200.27,7,982
-1.0751,-2.0935,0.9004,-375.97,33.53,-30.1,25,787
-0.5851,-0.2508,0.913,-111.51,29.12,-29.89,431,373
-0.6656,0.0303,0.8847,-20.72,27.09,-14.56,648,23
-0.5056,0.2245,1.1824,3.36,78.61,-5.53,767,13
-0.184,0.2245,1.3166,-5.88,217.7,-27.37,801,9
-0.5617,0.3226,0.812,-46.69,327.18,-58.17,600,16
-1.6236,0.0283,0.8564,-92.54,304.29,-62.58,87,16
-1.8622,-0.0102,0.8125,-49.77,255.15,-59.22,9,10
-0.8706,0.0044,0.8882,-77.56,185.36,-50.54,11,14
-1.3034,-0.0405,2.1818,80.64,79.1,-62.16,14,20
-0.3353,0.5026,2.1682,40.18,-21.91,-65.03,16,14
-0.2499,0.8325,1.7631,63.35,-143.78,12.11,17,15
-0.4621,0.4304,1.2176,89.53,-212.03,72.31,19,9
-0.8062,0.4524,1.1175,68.18,-251.65,58.66,12,14
-0.9335,0.3919,1.0028,95.97,-312.62,73.99,14,10
-1.1014,0.5544,1.1634,84.7,-312.55,112.7,17,9
-1.6899,0.5983,1.2625,81.34,-325.92,219.31,12,7
-2.3243,-0.3753,0.629,76.16,-265.72,179.9,6,9
-2.8241,-0.793,-0.8355,44.87,-159.46,20.3,10,14
-2.0755,0.3099,-1.2376,14.98,10.22,48.79,6,6
-1.4811,1.0619,-0.0332,18.48,159.74,15.4,13,11
-6.6231,-0.4207,2.6489,-182,74.27,-84.28,7,1006
-1.3932,-0.0786,0.4753,-78.4,8.54,-27.16,288,650
-0.7027,0.1581,0.8316,-17.99,5.39,-13.23,529,296
-0.5065,0.0678,0.9614,4.34,45.22,-2.31,676,14
-0.103,0.2118,1.503,7.14,157.99,-2.73,738,11
-0.3982,0.2908,0.8862,-39.62,290.08,-52.99,636,11
-1.383,-0.0459,0.6788,-76.79,307.16,-63.63,119,15
-1.5035,0.1771,0.7208,-21.77,274.89,-57.89,10,15
-1.1595,0.0542,0.8252,-11.2,200.69,-53.2,16,15
-0.652,0.1181,1.9837,21.84,136.15,-50.33,21,19
-0.486,0.4807,2.2097,44.66,34.51,-64.19,16,18
-0.0854,0.5314,1.7129,37.94,-68.74,-4.13,15,19
-0.6486,0.4104,1.4982,121.52,-161.84,55.93,16,10
-0.5705,0.1801,1.0946,99.82,-234.22,42.07,11,10
-0.8047,0.1362,1.0609,125.65,-301.28,36.05,16,15
-0.9862,0.1908,1.1527,148.96,-309.75,59.22,8,12
-1.5055,0.3235,1.383,147,-350.42,147,13,5
-1.8237,-0.5856,1.0097,110.67,-318.85,213.71,11,7
-2.5762,-0.73,0.0249,78.68,-239.12,107.94,5,10
-2.4293,-0.6773,-1.728,-13.72,-55.23,-3.92,13,12
-2.643,-1.6011,-2.9378,-108.78,176.89,-52.01,11,271
-3.2833,2.0706,1.6402,115.71,272.44,-161.42,14,1003
-0.0547,-1.7753,1.0287,-240.45,77.56,-49.91,16,873
-0.6773,-0.185,0.774,-53.83,25.69,-21.84,396,455
-0.6002,0.0239,1.1512,-15.26,39.83,-6.79,605,34
-0.4963,0.2904,1.098,-6.79,104.44,-1.96,727,18
-0.0908,0.6793,1.1932,-24.57,234.43,-35,722,3
-0.754,0.2377,0.7637,-52.92,293.93,-60.55,416,7
-1.5426,-0.0732,0.692,-34.16,286.93,-60.83,32,14
-1.6773,0.2269,0.8023,-35.07,207.9,-71.19,16,14
-0.9648,-0.2879,0.8423,-38.43,180.18,-52.57,18,23
-0.5305,0.5158,1.7744,67.69,90.44,-67.27,20,15
-0.5436,0.7422,2.0989,95.9,19.81,-38.29,15,22
-0.1937,0.325,1.6124,70.77,-72.45,39.48,20,15
-0.6529,0.2499,1.3742,164.08,-212.45,94.99,7,9
-0.9194,-0.222,1.1863,154.28,-273.42,55.44,9,13
-0.8018,-0.0786,1.0985,180.81,-311.22,60.41,14,17
-1.1824,-0.1976,1.4938,172.76,-320.04,94.22,13,10
-1.628,-0.2611,1.2756,106.47,-348.81,146.72,14,8
-2.3385,-0.6891,0.6139,77.21,-274.4,119,11,11
-2.6201,-0.9048,-0.6583,31.71,-146.02,14,20,7
-1.7056,-0.7862,-0.8115,81.55,23.03,2.24,11,7
-1.9291,-2.4668,-3.0895,-177.45,228.62,-148.89,3,479
-2.9314,1.6392,0.9028,-104.44,97.65,-67.97,7,991
-1.4396,-0.8208,0.9701,205.52,33.04,-54.88,44,754
-0.69,0.0991,0.8438,4.34,15.54,-18.2,320,393
-0.5954,-0.0434,0.9496,-3.15,33.32,-3.36,495,28
-0.3372,0.1903,1.2351,11.55,109.2,-4.06,625,10
-0.1391,0.2538,0.9072,-27.51,238.84,-32.48,636,9
-0.5007,0.2181,1.0375,-29.54,316.68,-58.66,344,14
-1.0882,0.0659,0.6725,-25.69,311.08,-41.3,19,12
-1.4347,0.0717,0.6617,-20.16,287.35,-49.21,14,24
-1.0316,-0.1713,0.6905,17.5,230.79,-27.86,7,21
-0.7257,0.2294,1.6387,92.96,156.38,-22.54,9,17
-0.7569,0.8194,1.9881,80.36,9.45,-65.45,12,20
-0.5134,0.2259,1.7304,56.07,-90.09,-23.59,6,17
-0.7671,0.3445,1.3303,135.73,-203.21,42.07,7,13
-0.3079,0.0512,0.833,137.34,-283.43,42.7,4,16
-0.8086,-0.06,1.0209,154.35,-307.37,27.23,8,15
-0.9355,0.1337,1.1673,182.7,-329.35,53.55,11,15
-1.4996,0.4168,1.4128,162.96,-351.05,117.04,7,6
-1.8178,-0.4387,0.9018,117.95,-322.14,201.88,1,7
-2.5337,-0.712,-0.0317,73.5,-224,138.67,9,5
-2.5771,-0.7359,-1.3532,13.51,-10.08,13.37,4,10
-2.8504,-1.7612,-3.0261,-179.83,216.65,-92.05,5,330
-5.1474,1.6255,1.323,-2.03,135.94,-153.3,6,902
-1.1039,-1.4118,0.5305,209.23,28.07,-53.9,119,668
-0.7081,-0.1083,0.7491,-17.01,3.78,-19.11,414,339
-0.5812,0.1386,0.9565,-13.3,22.19,-7.77,583,26
-0.4119,0.6544,1.3415,-19.32,112.35,-9.03,727,18
-0.1879,0.3065,1.24,-3.64,254.24,-39.69,728,11
-0.6222,0.2001,0.8111,-56.56,331.24,-61.95,415,20
-1.1819,-0.163,0.6749,-59.85,321.3,-47.74,23,16
-1.6875,-0.124,0.6256,-57.47,285.46,-50.61,11,18
-1.2566,-0.2435,0.7891,-26.46,186.06,-28.91,12,19
-0.855,-0.3733,1.7685,12.25,145.81,-31.01,15,22
-0.2655,0.6149,1.9954,29.26,22.33,-78.96,9,18
-0.9506,1.0946,1.9642,76.86,-102.41,-47.46,13,16
-0.6134,0.4192,1.4894,78.26,-189.84,26.39,16,16
-0.4377,0.589,0.8701,112.63,-267.47,50.12,16,12
-0.9565,0.3821,0.8916,136.08,-323.68,34.3,9,14
-0.6666,0.2562,0.8735,154.21,-305.27,64.12,7,14
-1.4708,0.285,1.4889,159.95,-318.15,137.34,4,7
-1.7002,-0.1352,1.0146,64.05,-329.42,245.07,9,8
-2.9339,-0.6364,0.2499,89.11,-245.56,201.32,8,15
-2.9099,-1.0316,-1.4459,-52.85,-89.25,29.54,6,7
-3.1354,-1.0541,-1.3659,-173.67,129.22,-7.21,4,32
-0.7784,0.1542,2.4278,90.58,360.01,-144.9,3,855
-2.3151,-0.6822,2.2887,-239.19,32.62,-71.54,9,811
-0.8257,0.873,0.8145,-62.23,4.69,-28.07,310,524
-0.6149,0.3084,0.8682,-10.36,15.68,-13.86,538,137
-0.548,0.1747,1.0268,2.24,46.06,-5.39,673,14
-0.2255,0.2601,1.4098,-20.16,170.8,-11.9,761,18
-0.9492,0.2572,0.6876,-49.7,303.87,-33.32,671,12
-1.4323,-0.1532,0.7315,-69.86,349.3,-48.58,181,24
-1.1356,0.1318,0.4943,-30.45,331.03,-25.2,14,24
-1.7085,0.1664,0.7876,-84.77,222.04,-25.27,16,22
-0.8926,-0.1566,0.8174,-53.27,199.01,15.54,12,18
-1.1614,-0.1474,2.1047,58.45,63.07,-46.48,7,10
-1.1287,0.7096,2.2668,95.2,-10.99,-94.78,13,11
-0.9311,0.7213,1.8466,72.17,-174.72,-57.47,16,9
-1.0663,0.672,1.1893,130.76,-246.54,3.71,11,0
-0.5763,0.3299,0.9423,89.95,-235.62,0.35,11,16
-0.609,0.4846,0.791,103.53,-309.05,77.77,10,9
-0.7998,0.3928,0.9711,117.53,-304.64,135.66,3,7
-1.3591,0.5729,1.5572,128.52,-374.36,182.77,7,3
-2.4117,-0.1903,0.8369,63.56,-327.04,236.88,9,8
-2.8338,-0.5051,-0.5602,52.22,-212.87,133.84,12,9
-2.4532,-0.9448,-1.2859,27.02,-37.87,31.85,12,3
-1.22,0.1264,-0.0869,55.3,142.17,-30.52,3,7
1.0233,-1.1785,1.7588,-92.19,371.84,-126.56,11,812
-0.2362,0.3475,1.5377,-153.86,153.72,-103.67,9,899
-0.063,0.8828,1.1917,-80.64,15.19,-45.99,247,610
-0.7017,0.3118,0.875,-9.94,4.41,-19.32,512,246
-0.6032,0.1127,0.9687,8.12,12.46,-9.59,660,25
-0.3548,0.0815,1.242,31.15,100.1,-2.52,780,10
-0.0083,0.3845,1.4747,21.28,275.17,-40.11,784,16
-0.5295,0.02,0.8096,-92.96,399.7,-79.8,395,17
-1.0878,-0.3806,0.7452,-28.7,373.87,-42.91,16,22
-2.4415,-0.2499,0.8496,-45.78,267.33,-36.33,9,24
-0.793,0.2767,0.8833,-132.3,169.75,-28.91,14,19
-0.4948,0.1327,1.5474,48.16,42.35,-57.54,15,14
-0.4441,0.6017,1.4967,6.09,4.83,-88.34,5,17
-1.1,0.6349,1.8241,58.8,-37.17,-76.44,13,11
-0.8384,0.8384,1.281,58.03,-159.95,-47.53,16,13
-1.2058,0.7671,0.9506,71.05,-240.38,-7.49,15,7
-0.9428,0.5256,0.5929,57.96,-263.13,27.37,13,8
-0.8847,0.4636,0.6588,70.56,-300.72,121.66,12,12
-1.0404,0.5705,0.7881,97.51,-330.96,164.99,4,0
-1.9549,0.489,1.0307,92.47,-365.4,233.24,8,6
-2.3048,0.0581,0.7476,88.76,-288.75,249.34,7,9
-2.7299,-0.2645,-0.0839,168.21,-199.36,188.23,12,9
-2.4219,-1.0878,-1.2678,20.51,-60.2,70,10,9
-2.0847,-1.1473,-1.0941,-8.4,78.54,63.7,8,10
0.893,-1.5914,0.6744,-119.7,434.84,-152.39,10,832
-3.9435,0.6393,1.6992,-33.39,88.34,-123.9,3,916
-0.2147,0.6998,0.8111,8.26,8.05,-26.74,299,627
-0.6861,0.2035,0.6964,13.65,2.52,-13.79,533,249
-0.6432,0.2826,0.9443,4.34,0.28,-7.77,673,20
-0.3431,0.4172,1.2381,11.06,95.76,-10.99,778,16
-0.123,0.1625,1.2708,11.62,244.16,-45.71,782,13
-0.5895,0.1932,0.8935,-91.98,349.23,-87.92,491,11
-1.2273,-0.4109,0.6295,-93.52,332.99,-66.78,54,16
-2.0945,0.0727,1.0604,-84.84,249.69,-59.99,12,23
-0.7618,-0.1113,1.1278,-148.47,211.12,-43.82,17,13
-1.1517,-0.022,2.3219,97.93,62.86,-53.62,15,12
-0.7008,0.6783,2.0652,35.28,-9.45,-93.73,12,5
-0.8091,0.9345,1.6519,16.87,-94.64,-49.49,17,17
-0.6759,0.551,1.2215,57.05,-157.36,4.62,17,4
-0.795,0.6271,0.7993,40.81,-260.96,29.33,15,10
-1.0472,0.6559,0.6852,80.57,-322.98,89.39,9,16
-1.0614,0.4943,0.671,105,-324.87,163.31,11,7
-1.8393,0.6832,1.0321,95.48,-329.14,224.7,16,7
-2.3331,-0.0312,0.7305,84.28,-312.13,272.02,15,8
-3.0402,-0.6368,-0.264,86.8,-206.57,181.3,9,11
-2.6171,-1.0775,-1.649,34.37,-69.51,53.27,7,7
-1.8324,-0.7286,-0.2176,75.46,55.58,49.56,12,9
3.1803,-1.891,1.6099,-111.65,448.63,-182.14,10,951
1.849,0.367,1.4645,-79.1,154,-120.47,3,881
-0.1396,1.2849,1.2493,37.1,9.94,-31.57,261,639
-0.6095,0.2255,0.9945,-8.12,3.22,-17.78,512,285
-0.5505,0.1889,0.9028,5.18,18.55,-10.99,662,17
-0.4919,0.1757,1.3981,27.72,98.56,-9.87,755,10
-0.1562,0.3504,1.3054,18.76,259.56,-46.06,703,12
-0.5641,0.0937,0.8233,-85.75,353.92,-83.23,335,22
-1.2903,-0.1747,0.7832,-59.08,318.43,-68.39,23,17
-1.5323,0.3597,1.1775,-140.56,205.87,-74.62,13,19
-0.4026,-0.2582,1.7353,-127.19,195.58,-26.67,12,10
-0.0903,1.0248,2.0584,13.58,67.97,-67.48,24,11
-0.6324,0.8169,2.0755,23.1,-12.46,-58.1,19,12
-0.5934,0.6632,1.6777,63,-93.45,-12.53,18,7
-0.9233,0.815,1.3835,53.9,-192.92,31.5,19,9
-1.1878,0.3777,0.7671,69.3,-273.56,58.66,16,10
-0.9179,0.2499,0.7964,95.55,-313.11,95.48,16,10
-1.0785,0.4738,0.9599,113.19,-322.7,143.15,14,3
-1.649,0.4885,1.0721,103.74,-343.98,231.63,20,9
-2.5884,-0.3748,0.5583,100.73,-287.49,281.75,13,12
-3.315,-0.8345,-0.7867,84.63,-183.96,158.2,16,8
-2.9919,-0.9989,-2.3526,-26.67,-13.93,66.43,8,3
-2.5186,-0.9545,-2.1721,-360.92,279.58,-53.9,8,229
-4.3139,2.3468,-0.0737,-99.05,-71.12,-89.04,9,927
-1.5616,-0.4441,0.7252,123.9,-24.71,-37.31,252,694
-0.4914,0.1054,0.7886,0.84,5.04,-13.65,516,367
0.1142,0.5851,1.4669,18.9,25.34,-9.73,678,45
-0.3401,0.2196,1.1873,8.4,86.24,-8.75,768,16
-0.2552,0.2747,1.301,-9.94,222.88,-37.45,745,9
-0.5641,0.3675,0.9667,-87.29,321.09,-75.46,528,17
-1.523,-0.2562,0.8154,-97.65,318.43,-63.91,63,18
-1.6011,0.2196,1.0472,-103.39,232.89,-65.66,15,26
-0.8208,-0.2743,1.16,-125.23,214.62,-20.51,19,13
-0.9443,0.6734,2.2785,42.77,98.14,-43.54,14,18
-0.4021,0.9833,2.0994,-9.1,26.04,-85.12,20,13
-0.4719,0.8862,1.7788,58.73,-79.59,-40.6,18,16
-0.7691,0.6393,1.4625,83.44,-177.94,10.71,18,17
-0.571,0.4748,1.0077,101.08,-258.02,39.41,16,7
-0.8111,0.4602,0.9545,142.87,-314.86,86.1,15,13
-1.0297,0.5622,1.1131,142.8,-332.78,162.19,19,10
-1.9759,0.8267,1.3225,112.21,-355.53,273.35,12,12
-2.6913,-0.5056,0.5007,66.57,-292.46,275.52,13,8
-3.1949,-0.6251,-0.9662,12.88,-189.07,78.96,12,9
-1.9418,-1.6724,-2.1823,140.63,29.4,46.97,15,0
-4.3256,-2.3346,-2.6645,-375.06,189.63,-132.16,17,368
-7.4156,2.1916,1.5562,19.95,102.62,-206.85,10,1002
-1.1209,-1.9398,0.1869,212.1,14.91,-48.02,188,723
-0.7867,-0.2416,0.65,-19.18,-13.3,-12.95,477,407
-0.5378,-0.0913,0.9531,-20.02,13.37,-8.12,639,68
-0.3816,-0.0488,1.2361,-3.29,78.05,-2.45,738,11
-0.1571,0.0913,1.3586,-19.67,238.98,-22.19,762,16
-0.5436,0.0805,0.7696,-70.42,345.17,-63.28,384,17
-1.2351,-0.204,0.7344,-56.49,329.28,-58.87,35,24
-1.971,0.121,1.1556,-84.63,226.45,-54.67,12,24
-0.5827,-0.1562,1.3869,-108.15,198.38,-20.93,16,24
-0.2391,0.7022,2.1701,38.78,85.68,-88.48,16,14
-0.5734,0.8511,2.3429,69.16,-8.68,-101.43,16,17
-0.6583,0.8047,1.8876,65.1,-119.7,-19.53,13,7
-0.528,0.7105,1.2898,102.2,-205.17,64.54,15,10
-0.9492,0.2572,1.1068,121.24,-307.51,64.05,18,16
-0.8926,0.3431,0.9345,151.13,-356.51,101.85,18,11
-1.4401,0.4002,1.3098,152.67,-343.28,176.68,15,7
-2.4,-0.2494,1.0712,73.36,-336.21,281.19,17,16
-3.2379,-0.4997,-0.0664,100.59,-254.94,225.12,10,7
-2.9602,-1.8827,-1.9471,3.92,-76.58,49.7,16,10
-3.172,-0.3226,-1.3947,-277.69,185.15,-24.36,17,25
0.2416,-0.7115,2.8909,36.33,433.16,-114.24,11,934
-1.709,0.1064,0.957,-92.05,36.26,-78.82,6,966
-0.7813,0.9126,0.6359,-35.35,13.65,-25.2,247,716
-0.6115,0.3109,0.7227,-11.27,0.14,-18.06,511,356
-0.1005,0.5319,0.9892,6.23,31.92,-11.13,641,28
-0.3792,0.5592,1.1766,-1.68,96.67,-20.23,727,7
-0.1693,0.0571,1.2322,-12.18,244.58,-51.03,763,18
-0.5505,0.0512,0.8882,-90.3,322.35,-88.55,516,18
-1.1941,-0.2582,0.6427,-85.75,305.62,-60.69,63,16
-1.6548,0.0337,0.9306,-93.38,269.57,-65.66,23,29
-0.9067,-0.1054,1.0585,-99.12,216.58,-53.76,9,15
-1.4938,-0.1986,2.5586,64.19,120.26,-66.85,18,15
-0.1718,1.1785,2.1916,-41.09,-41.23,-82.53,23,15
-0.673,0.9028,1.8949,59.15,-119,10.57,15,14
-0.1991,0.591,1.1292,46.06,-218.89,60.69,16,5
-0.9853,0.59,1.0297,128.24,-314.72,72.73,15,7
-0.8184,0.0971,0.8979,160.02,-336.91,92.68,18,14
-1.2078,0.1381,1.2747,163.66,-328.72,155.96,12,7
-2.2863,0.0771,1.2093,69.44,-366.24,290.64,16,3
-3.1071,-0.4348,0.0673,29.61,-256.48,250.67,15,8
-3.0964,-1.2507,-1.808,10.64,-98.91,67.48,8,5
-2.6616,0.2416,-0.9145,96.81,46.06,17.5,9,9
2.807,-2.1775,2.0335,-180.88,409.78,-144.9,14,879
0.0566,0.8838,1.4577,-8.54,141.47,-88.9,8,970
0.2552,0.6773,1.4132,34.93,10.29,-38.01,233,706
-0.4563,0.1776,0.7686,4.97,8.82,-16.73,520,334
-0.629,0.0766,0.977,21.28,23.1,-7.07,654,23
-0.4255,0.2845,1.2488,16.8,97.3,-9.52,764,13
-0.2313,0.1039,1.1863,-3.99,237.44,-32.48,747,18
-0.5558,0.1947,0.7652,-71.33,324.17,-58.73,459,13
-1.198,-0.1737,0.7383,-44.66,309.26,-45.5,26,18
-1.7158,0.1498,1.1893,-101.57,204.47,-50.4,21,26
-0.7218,-0.4387,1.6431,-95.97,187.67,-14.91,16,18
-0.4895,0.8813,2.5098,70.77,50.47,-125.09,20,13
-0.2782,1.1019,2.1482,47.95,-71.19,-116.48,16,13
-0.469,1.1141,1.6943,72.66,-158.2,-4.97,14,11
-0.5178,0.6193,1.1356,50.96,-233.38,90.79,15,11
-0.9004,0.4934,0.9682,109.48,-322.42,87.85,16,16
-1.2156,0.5402,0.9838,148.12,-359.8,99.12,20,8
-1.7832,0.9692,1.1287,124.81,-358.68,227.5,18,10
-2.6196,-0.2147,0.6349,121.87,-261.59,338.17,15,9
-3.3306,-0.7066,-1.2668,-26.95,-145.46,94.15,15,10
-2.7284,0.0068,-1.6328,125.93,37.59,15.61,12,5
-1.279,-2.5254,-1.7988,-283.57,234.08,-107.1,15,479
-7.4605,0.6422,1.0028,-224.7,-17.29,-74.55,9,1039
-1.869,0.4626,1.5299,82.25,-28.42,-47.53,117,810
-0.7784,-0.0532,0.7559,28.84,-9.66,-14.21,418,518
-0.5968,0.0273,0.9448,6.16,15.61,-7.07,598,89
-0.3494,0.1498,1.2576,28.07,93.94,-6.44,693,8
-0.2011,0.2616,1.2019,-10.5,238.77,-39.41,682,16
-0.5978,0.1781,0.833,-71.82,326.13,-63.84,353,15
-1.2512,-0.204,0.7213,-36.68,303.45,-47.81,27,26
-1.6421,0.0756,1.2483,-87.22,215.74,-47.32,17,20
-0.8535,-0.1693,1.8515,-72.24,200.27,-38.22,21,15
-0.5139,0.9008,2.3292,42.98,90.58,-130.97,15,17
-0.4534,1.0429,2.0262,19.11,-35.56,-106.26,19,13
-0.2137,0.6783,1.4869,70.77,-128.94,14.42,14,16
-0.6773,0.5017,1.0565,73.36,-249.27,63.14,14,3
-0.8555,0.4016,0.9584,126.63,-328.37,75.6,13,8
-0.9726,0.4699,0.975,135.87,-360.5,129.92,24,12
-1.689,0.893,1.302,131.74,-363.37,244.02,19,17
-2.8206,-0.2489,0.6686,79.31,-294.07,340.13,18,0
-3.3243,-0.4436,-1.1082,14.56,-151.9,180.39,15,2
-2.0413,-1.2659,-1.117,193.55,23.59,39.69,15,9
0.8838,-2.3951,-1.0282,-126,340.48,-171.5,14,717
-1.8934,1.2468,0.6583,-141.12,54.32,-110.11,6,977
-0.6978,0.9423,0.9706,-75.32,11.13,-40.88,292,642
-0.5773,0.1698,0.8755,-12.95,6.65,-22.68,556,225
-0.7017,0.3196,1.1131,4.76,35.35,-9.45,713,11
-0.5139,-0.1581,1.0682,1.82,126.98,-22.33,816,16
-0.3914,0.5075,1.0189,-35.28,271.6,-62.37,703,16
-1.2839,0.102,0.7574,-102.9,304.15,-78.33,153,16
-1.4528,0.2025,0.8745,-78.4,245.77,-50.12,8,15
-0.7925,0.0102,1.0399,-131.32,207.48,-30.38,17,15
-0.5041,-0.6115,1.9339,23.59,144.34,-68.81,17,18
-0.3094,1.0472,2.2072,22.47,10.43,-164.36,7,12
-0.182,1.1,1.6309,10.64,-111.86,-94.43,10,12
-0.8023,1.1873,1.2956,47.67,-182.28,45.15,20,7
-0.7984,0.6817,0.8818,27.79,-266.14,112.98,16,8
-1.0297,0.673,0.8359,96.95,-317.59,143.71,16,8
-1.4235,0.6212,1.0404,118.09,-340.62,202.3,11,3
-2.0818,0.7432,0.954,81.13,-329.21,276.22,17,8
-2.9056,-0.2284,0.1396,135.24,-214.62,300.58,13,8
-3.0554,-1.2254,-1.503,-24.85,-71.33,145.18,14,0
-1.7163,0.022,-0.0756,61.95,138.88,40.6,13,7
2.1335,-1.79,3.4199,42.07,398.51,-198.52,10,1030
1.0121,-0.4294,3.0139,-236.11,180.74,-100.24,7,886
-0.6105,1.096,0.8457,-56.28,21.91,-27.16,304,584
-0.6364,0.3743,0.8267,-4.97,-1.05,-11.48,509,256
-0.7925,-0.1864,0.8267,17.92,10.64,-1.54,631,16
-0.327,0.3284,1.0946,7.63,76.44,-2.24,695,15
-0.3894,0.2806,1.0736,-15.19,175.91,-19.25,683,9
-0.5671,0.2128,0.8228,-41.65,237.3,-43.82,543,11
-1.1278,-0.1898,0.7261,-52.85,252.35,-36.75,112,16
-1.3776,0.184,0.8252,-12.67,204.47,-11.48,18,23
-1.0663,-0.1074,1.1019,-88.55,190.75,-6.37,17,20
-0.8267,-0.06,2.2834,6.44,148.12,-32.13,11,20
-0.2874,1.0965,2.0964,-38.43,-22.12,-172.97,7,16
-0.2259,0.8921,1.5577,38.64,-82.6,-147.14,13,4
-0.3802,0.9374,1.179,36.47,-173.39,2.94,13,4
-0.794,0.7135,0.9682,54.53,-256.06,93.03,11,1
-0.9828,0.2821,0.9462,100.45,-305.41,131.53,13,11
-1.1854,0.3782,0.8452,114.87,-342.58,145.67,20,8
-2.0345,0.2606,0.4646,63.98,-293.51,267.96,11,12
-2.9939,-0.3504,-0.264,66.29,-168.42,276.85,13,6
-3.0017,-1.1936,-1.0116,22.19,-25.9,100.24,13,7
-1.6826,-0.9389,-0.7671,20.86,85.96,37.38,12,8
0.2367,-0.6461,1.1063,-53.76,267.47,-60.13,11,655
0.4499,-0.1908,1.1092,-60.41,75.25,-60.48,7,927
-1.1341,0.3499,0.974,-45.5,-15.19,-40.39,107,689
-0.6534,0.2977,0.8198,4.2,-9.59,-13.3,351,376
-0.0063,0.2562,1.0643,9.17,14.28,-10.85,552,94
-0.4368,0.1435,1.0868,-7.63,46.48,-6.51,695,16
-0.3065,0.121,1.3132,-25.06,170.87,-17.92,787,11
-0.3099,0.4128,1.0082,-19.53,270.13,-55.44,739,9
-1.0277,0.1523,0.7008,-76.79,304.01,-72.59,282,11
-1.3737,-0.0854,0.7681,-61.32,273.21,-38.36,36,22
-1.465,0.103,1.0716,-171.5,175.49,-31.57,16,25
-0.7237,-0.2908,1.2195,-130.48,204.54,2.73,15,20
-0.8779,0.9482,2.3624,80.57,25.13,-101.5,13,19
-0.3255,0.9814,1.7226,-50.68,-76.79,-129.5,13,7
-0.6642,0.9321,1.303,-12.88,-145.95,-41.44,17,9
-0.8369,1.2078,0.8233,24.43,-251.65,25.55,10,8
-0.9555,0.856,0.5295,65.24,-303.87,81.41,12,1
-1.1497,0.5885,0.6412,97.16,-304.01,151.9,12,10
-1.5621,0.7803,0.9809,106.75,-321.23,211.82,12,9
-1.9491,0.0703,0.7886,83.93,-281.82,300.72,17,8
-2.8382,-0.4104,0.0249,64.75,-192.5,285.95,16,8
-2.4454,-1.3879,-1.2883,27.58,-29.33,79.94,16,10
-1.3283,-0.0869,-0.1845,85.82,114.1,2.1,9,9
1.1546,-0.6564,2.3395,-16.24,289.45,-117.67,11,839
0.7125,-0.8833,1.486,-123.83,117.11,-54.04,10,818
-0.4451,0.205,0.9584,-47.95,11.69,-21.7,199,605
-0.6134,0.4221,0.795,-3.43,-2.03,-16.1,433,264
-0.4939,0.3841,0.9658,-34.37,27.51,-10.64,611,23
-0.3289,0.2264,1.2527,-1.05,108.85,-5.6,715,15
-0.2991,0.2401,1.1644,1.89,238.35,-37.03,730,16
-0.61,0.1435,0.754,-57.96,318.08,-72.31,439,10
-1.2439,-0.2923,0.6808,-74.9,297.15,-55.51,45,19
-1.8261,0.0908,1.0048,-111.16,236.32,-49.7,13,13
-0.9013,-0.181,0.995,-108.85,206.92,-11.97,12,13
-1.036,0.5817,2.2721,85.19,74.27,-65.1,18,15
-0.5178,0.7232,1.9315,-16.38,-18.97,-113.33,9,11
-0.7808,0.7793,1.483,80.92,-109.69,-74.83,16,10
-0.5895,0.7969,1.0302,30.73,-218.33,-21.7,16,7
-0.7335,0.8257,0.8072,95.48,-274.47,60.48,12,9
-0.7564,0.4187,0.7593,119.7,-318.85,155.19,9,9
-1.1722,0.3592,1.0838,127.26,-331.87,192.57,18,9
-2.0818,0.1552,0.9931,120.75,-366.59,263.76,14,8
-2.8294,-0.7159,0.102,88.9,-242.83,251.86,17,9
-3.2491,-0.8418,-1.3962,20.44,-93.03,93.52,13,10
-2.1862,0.4011,-0.8794,51.03,143.22,-3.29,12,9
-0.0127,-1.4172,2.0003,-69.72,274.75,-75.53,16,728
1.8969,0.7115,1.6153,-142.73,116.06,-93.24,4,822
-0.1815,1.1229,0.9765,-26.6,0.42,-26.46,215,587
-0.6232,0.2987,1.0092,-10.22,1.61,-14.56,461,223
-0.5129,0.2406,1.0492,6.86,35.91,-8.4,622,17
-0.1635,0.0205,1.3864,-12.88,167.23,-3.64,730,15
-0.3177,0.306,0.9902,-36.26,319.55,-50.54,644,13
-1.4596,0.2045,0.8462,-90.37,338.8,-62.44,103,19
-1.9398,0.0488,0.7139,-52.43,278.11,-47.32,11,14
-0.7374,0.0693,0.8877,-139.09,187.6,-42.98,6,15
-0.6705,-0.8291,1.7168,5.81,161.07,-54.11,17,9
-0.6061,0.8233,2.2053,34.58,41.09,-122.22,15,10
-0.7022,0.9843,1.8642,38.43,-67.9,-68.32,12,14
-0.8008,0.6993,1.5226,66.71,-116.9,5.81,15,7
-0.4011,0.5139,0.995,78.12,-230.86,46.13,9,9
-0.9877,0.5183,0.8667,143.71,-319.9,76.51,15,8
-1.0146,0.5251,0.8491,139.02,-339.71,148.47,14,10
-1.832,0.6305,1.2132,106.61,-340.2,267.75,17,10
-2.4781,-0.2357,0.5641,66.08,-294.14,283.36,16,10
-3.1266,-0.2674,-0.8086,36.96,-214.06,96.81,10,4
-2.9309,-1.0497,-2.5913,-18.62,32.2,-14.98,10,10
-0.8599,-2.6318,-0.5778,-139.79,309.96,-83.65,16,568
-2.0677,0.8896,1.463,-123.9,123.97,-83.09,3,925
-1.2927,-0.6564,1.606,182.7,-20.93,-53.97,175,687
-0.5309,0.4758,0.7086,-7.28,9.1,-14.84,511,219
-0.4856,0.2591,0.9262,14,50.12,-8.4,670,17
-0.202,0.3792,1.3976,-54.81,167.37,-15.61,743,14
-0.2938,0.3177,0.9575,-30.66,288.61,-52.22,658,10
-1.4001,0.1171,0.7725,-72.24,336.35,-68.46,173,16
-1.4337,0.1322,0.7437,-51.94,309.61,-51.38,11,16
-1.4752,-0.001,1.161,-85.12,210.14,-37.87,17,18
-0.7139,-0.4168,2.177,-5.46,156.31,-44.03,15,19
-0.4821,0.8457,2.2653,49.91,39.13,-131.6,7,19
-0.4778,1.0634,1.669,34.37,-82.81,-65.59,16,15
-1.2278,0.3997,1.4089,75.88,-190.47,62.72,10,8
-0.4978,0.2918,0.6715,91.07,-262.78,69.37,16,12
-1.0214,0.2611,0.8052,146.09,-337.12,98.07,17,10
-0.7476,0.1303,0.9462,147.63,-318.01,153.23,7,8
-2.0008,0.2855,1.2839,63.7,-355.32,256.06,15,7
-2.6001,-0.5553,0.4329,51.52,-283.01,240.38,14,17
-2.8465,-0.6032,-1.2215,-6.3,-165.41,70.56,5,8
-2.2175,-0.7798,-0.8862,97.37,27.86,59.22,16,7
-1.5928,-2.0208,-1.6577,-214.69,249.55,-152.88,15,543
-1.9993,0.8037,1.3239,-148.4,65.94,-94.36,6,1010
-1.0282,0.713,1.2659,75.04,-23.45,-44.59,130,822
-0.5514,0.4324,0.8877,17.08,-2.38,-17.01,412,435
-0.4231,0.2606,0.9555,11.83,39.41,-9.8,649,23
-0.1342,0.4168,1.5767,34.3,144.41,-17.71,739,15
-0.0849,0.3762,1.1058,-11.62,281.33,-52.85,709,13
-1.1419,0.1264,0.7603,-64.68,349.65,-74.41,247,19
-1.0741,0.0098,0.5388,-29.26,319.62,-45.36,11,19
-1.7304,-0.1152,0.8023,-60.62,263.2,-41.72,9,24
-1.0741,0.0854,0.9326,-12.88,199.22,-19.88,9,15
-1.5923,0.2289,2.3966,62.79,47.88,-61.11,10,14
-0.651,1.1619,2.2428,0.49,-49.56,-96.04,12,17
-0.364,0.8403,1.7773,101.99,-170.87,-16.03,13,11
-0.0298,0.7139,0.997,60.06,-257.95,45.22,15,8
-0.7945,0.5475,1.0258,152.88,-308.98,72.73,15,6
-0.8818,0.2494,1.138,166.67,-338.59,99.26,15,11
-1.4567,0.3797,1.4738,163.1,-365.96,163.52,16,15
-2.1755,-0.0522,1.0873,78.4,-362.18,259.42,14,7
-3.3116,-0.6139,-0.5553,51.87,-233.52,155.26,7,3
-3.3213,-1.8241,-2.359,132.16,3.57,72.17,5,14
-3.5726,-1.8856,-2.6079,-301.35,234.99,-103.81,12,414
-5.1713,-0.59,1.2483,-213.85,148.47,-118.72,7,1063
-1.2468,-0.3504,-0.367,86.03,43.12,-48.72,52,879
-0.7159,-0.2167,0.9262,-5.04,2.38,-18.13,414,524
-0.6085,-0.0493,0.8413,-5.88,26.25,-8.33,616,73
-0.4109,0.4695,1.3083,-25.97,100.1,-4.48,728,7
-0.1698,0.1313,1.1868,-33.25,236.53,-41.86,728,11
-0.6881,0.0239,0.752,-72.8,320.18,-66.43,339,21
-1.2698,-0.0337,0.6383,-38.57,297.5,-61.46,29,16
-1.747,0.1279,0.8657,-61.46,199.5,-65.24,16,19
-0.7125,-0.0259,1.0189,-95.41,192.22,-47.74,16,18
-0.8896,0.3704,2.4644,13.72,100.73,-52.08,14,11
-0.4207,1.0175,2.4337,-18.76,-22.05,-60.13,12,24
-0.7022,0.7364,2.2306,122.01,-105.56,-18.55,20,15
-0.2757,0.6715,1.2268,77.84,-233.1,64.26,18,6
-0.9843,0.4421,1.2102,148.96,-297.01,84.28,15,16
-0.835,0.1415,1.0204,160.93,-328.79,102.76,13,10
-1.7168,0.8794,1.1585,119.63,-399.91,205.87,15,12
-2.5952,-0.2216,0.6861,67.13,-329.35,271.04,14,16
-3.0681,-0.6134,-0.612,59.29,-207.13,134.82,12,12
-2.2834,-1.6846,-2.114,51.1,-18.27,44.17,7,10
-2.5776,-0.6105,-1.4479,-355.04,243.88,-11.27,12,116
-6.525,0.712,1.9749,11.69,357.56,-228.69,15,1069
0.2011,-1.7602,1.0253,-283.29,62.37,-21.91,19,885
-0.5592,-0.2098,0.834,-61.53,15.75,-18.41,367,572
-0.5983,-0.0566,0.9048,-17.85,32.69,-9.31,587,67
-0.3245,0.2416,1.3117,-18.27,112.56,-10.43,716,16
-0.3231,0.1972,1.1317,-26.18,238.49,-44.38,702,15
-0.6534,0.1767,0.7115,-67.34,315.42,-66.71,310,19
-1.423,-0.1181,0.6856,-21.84,287.63,-53.55,25,17
-1.259,0.2225,0.9921,-65.17,190.26,-46.62,16,22
-0.6812,-0.0644,1.831,-43.54,193.76,-21.91,14,15
-0.7706,0.6793,2.564,58.1,68.67,-87.08,9,15
-0.1713,0.651,1.9256,40.04,-44.59,-53.13,6,14
-0.7969,0.7413,1.6675,104.16,-154.63,38.29,15,16
-0.5173,0.204,1.1209,90.51,-240.31,48.79,15,10
-0.9048,0.1815,1.1185,133.21,-328.72,67.06,15,8
-0.9692,0.4153,1.1717,134.68,-365.96,122.92,16,11
-1.8676,0.2904,1.1883,104.09,-381.43,215.46,9,4
-2.7391,-0.751,0.3289,95.06,-292.25,224.42,12,12
-3.2027,-0.7452,-1.2376,-5.67,-155.4,77,15,10
-2.9407,1.2293,-2.1565,-99.89,81.2,16.59,11,9
0.9799,-2.177,2.1892,-99.33,455.35,-106.54,11,917
-2.948,-0.2777,2.8553,-326.06,47.81,-79.94,8,875
-0.7159,0.2523,0.8364,-75.39,8.4,-23.31,338,562
-0.5514,0.0991,0.9399,-10.99,25.97,-10.78,574,119
-0.3396,0.1498,1.2503,7.91,91.77,-4.13,721,12
0.0312,0.6744,1.2278,-8.4,244.16,-36.96,741,16
-0.5949,0.1669,0.8018,-51.03,328.51,-51.24,481,25
-1.3469,-0.1171,0.71,-30.87,320.32,-41.72,51,15
-2.0989,0.0786,0.8306,-38.15,202.93,-43.96,17,28
-0.7149,-0.0952,1.0077,-89.53,183.68,-22.19,7,20
-0.6647,0.1059,2.0272,24.22,104.37,-61.46,15,24
-0.7906,0.3626,2.4439,93.59,25.55,-97.65,13,18
-0.3006,1.0292,1.8764,53.48,-75.18,-81.9,21,18
-1.0931,0.6446,1.5543,128.59,-183.82,41.86,14,17
-0.6895,0.1962,0.956,72.1,-245.07,68.67,11,12
-0.7774,0.2552,0.8418,126.21,-324.17,86.66,14,5
-1.2742,0.5588,1.3391,114.52,-343.77,136.78,11,5
-1.9139,0.3802,1.178,73.15,-367.43,237.86,8,3
-2.6869,-0.6895,0.224,105,-271.04,224.77,9,9
-3.0266,-1.1639,-1.2581,2.8,-119.42,66.78,9,7
-1.7588,-0.3421,-0.6432,68.6,87.08,33.81,10,7
1.5157,-2.6518,1.1766,-187.18,402.22,-176.47,14,863
2.9963,0.2396,3.3892,-257.67,150.43,-108.15,8,893
-0.4904,0.9672,1.1492,-43.33,2.52,-26.39,324,611
-0.5412,0.245,0.9262,-5.25,13.02,-14.35,555,200
-0.4455,0.1679,1.1424,11.69,53.83,-1.33,697,11
-0.0527,0.2552,1.6421,-2.52,208.11,-20.79,764,17
-0.4207,0.2635,1.0458,-44.24,335.93,-51.03,598,13
-1.4606,-0.0332,0.8174,-81.27,351.82,-51.94,95,20
-2.2263,-0.0005,1.0024,-45.29,253.89,-42.42,15,28
-0.6461,0.0288,1.1566,-58.45,204.19,-22.47,14,21
-0.5846,0.3889,2.0389,56.07,73.29,-80.85,15,14
-0.6651,0.5085,2.1623,56,-11.76,-101.29,11,11
-0.3284,0.9013,1.625,50.82,-97.86,-60.62,12,19
-0.5622,0.7793,1.2873,87.43,-181.02,29.96,13,12
-0.6881,0.3924,0.957,108.85,-284.9,57.12,18,11
-0.8891,0.2708,0.9301,145.04,-317.8,74.48,15,14
-1.0848,0.3157,1.1668,138.67,-336.77,146.02,14,8
-1.9291,0.2435,1.2317,58.17,-356.79,275.1,14,12
-2.7352,-0.5836,0.2128,40.95,-253.89,252.63,14,3
-3.11,-1.1322,-1.4523,-17.85,-130.62,42.63,16,14
-2.0925,-0.3982,-0.5314,65.73,105,20.44,9,14
1.8978,-2.4507,1.9105,-128.03,404.18,-114.87,14,884
2.2155,-0.4802,3.4262,-236.53,126.84,-91.56,8,835
-0.7481,0.0351,0.9374,-83.02,6.79,-20.37,432,453
-0.5583,-0.08,0.978,-4.62,17.99,-10.78,627,68
-0.4216,0.3919,1.2083,-13.44,85.96,-2.03,754,12
-0.1464,0.2962,1.2473,-25.83,241.29,-30.73,751,14
-0.5778,0.2396,0.792,-63.28,335.37,-61.81,453,11
-1.4245,-0.2176,0.7257,-68.25,326.62,-57.33,42,14
-1.7431,0.0849,1.0053,-73.43,204.61,-54.81,23,22
-0.7242,-0.2533,1.4118,-47.6,198.8,-17.22,16,19
-0.4046,0.6388,2.033,63.63,65.38,-111.51,8,13
-0.6012,1.0028,2.1287,46.69,-22.19,-121.94,20,9
-0.7218,0.7915,1.7348,59.71,-115.99,-37.31,15,14
-0.7632,0.9082,1.2381,80.92,-205.38,85.26,15,10
-0.7779,0.3109,0.9931,91,-272.93,101.78,11,8
-0.856,0.4631,0.9794,131.25,-330.26,122.99,14,8
-1.6826,0.4119,1.4581,150.5,-371.77,189.49,20,7
-2.2121,-0.1078,0.7662,95.69,-348.67,278.6,13,7
-3.3272,-0.2572,-0.3621,84.98,-211.54,195.65,9,8
-2.6967,0.4436,-1.6407,42.28,2.45,26.74,16,6
-2.7782,-1.6787,-2.6054,-221.48,208.39,-73.15,15,232
-5.6872,1.6226,1.4879,21.28,292.11,-253.33,16,961
-1.181,-1.5284,-0.5212,3.43,40.53,-28.35,82,723
-0.5802,0.0869,0.8945,10.85,5.74,-16.38,492,296
-0.6349,0.0122,1.0131,-7.28,24.71,-6.44,655,20
-0.345,0.3079,1.2551,14.28,97.93,-4.62,767,16
-0.2137,0.0991,1.2644,-20.65,234.08,-33.04,739,16
-0.5778,0.1205,0.8233,-70.77,325.71,-60.83,392,17
-1.2107,-0.2162,0.7115,-49.98,325.15,-44.87,30,19
-1.9935,0.0156,1.0912,-71.4,226.31,-34.09,18,24
-0.5895,-0.0425,1.5616,-64.05,205.45,-17.43,17,19
-0.3518,0.6983,2.2341,39.9,57.68,-124.39,11,17
-0.5705,1.344,1.9705,75.6,-82.74,-112.21,11,13
-0.3826,0.6871,1.4089,70.98,-134.82,-25.83,13,11
-0.6168,0.7671,0.9721,67.2,-215.18,51.59,11,13
-0.9799,0.4514,0.9365,119.21,-287.42,90.3,16,12
-1.0048,0.49,0.8618,128.73,-331.94,151.97,16,14
-1.6963,0.611,1.2561,98.77,-340.97,227.36,16,4
-2.257,-0.2523,0.6847,71.4,-311.64,274.68,15,11
-2.8182,-0.5344,-0.4846,53.06,-217.14,125.3,11,9
-2.845,0.0195,-1.3078,5.46,-17.36,61.81,16,16
-3.2637,-1.9393,-2.2775,-286.51,175.98,-59.85,11,265
-5.6305,1.3849,0.8769,-165.41,141.33,-117.04,0,1023
-1.747,-0.6759,0.3787,220.99,-9.1,-57.89,95,806
-0.6749,-0.019,0.916,5.6,2.94,-13.51,418,458
-0.611,0.0732,0.9872,19.25,34.79,-4.9,619,34
-0.2484,0.7662,1.7173,48.16,135.24,-4.2,718,15
-0.1083,0.489,1.1102,-30.52,278.46,-41.37,660,10
-0.9745,0.1908,0.7476,-58.1,335.44,-60.2,211,21
-1.6128,0.0366,0.6349,-45.08,289.66,-49.21,19,18
-1.2615,-0.0156,1.0067,-83.16,187.88,-28.56,17,13
-0.673,-0.3972,1.9735,-37.24,166.81,-36.75,11,15
-0.3884,0.5285,2.3268,31.78,69.23,-107.87,13,16
-0.4182,1.159,2.0379,53.27,-60.76,-93.87,17,15
-0.385,0.7071,1.4684,122.71,-134.96,-16.38,15,11
-0.7637,0.5373,1.1649,127.96,-251.86,56.42,13,16
-0.9335,0.2391,0.9823,163.52,-312.13,70.35,11,16
-1.0126,0.3514,1.039,158.97,-337.05,131.11,16,14
-1.9935,0.6739,1.2498,118.79,-375.97,246.61,18,8
-2.4376,-0.5934,0.4397,99.4,-296.73,286.3,18,12
-3.1188,-1.1004,-1.4557,-5.18,-126.49,41.3,11,10
-2.4551,-0.5529,-1.2493,15.26,77.7,34.02,11,5
-3.0627,-1.5723,-1.646,-321.51,209.93,-126.63,15,338
-10.5413,0.4631,-0.8804,-96.25,-74.27,-7.84,5,989
-1.8837,1.0326,0.8725,103.39,-22.82,-34.44,168,714
-0.469,0.1737,1.0502,4.34,6.86,-7.56,427,372
-0.5802,0.1742,0.955,-0.91,18.27,-8.12,594,28
-0.2933,0.0888,1.3239,-12.81,102.06,-1.61,710,11
-0.2084,0.1552,1.2659,-10.43,247.94,-27.72,686,11
-0.6276,0.1635,0.7291,-43.54,333.27,-54.81,343,18
-1.523,-0.0908,0.7354,-41.09,324.94,-49.28,23,13
-1.8393,0.0854,1.2005,-59.22,205.66,-43.26,18,23
-0.5348,-0.4319,1.8949,-54.25,178.5,-45.01,14,15
-0.2801,0.8496,2.0808,48.65,51.17,-134.82,13,6
-0.5568,1.2049,1.9598,55.16,-43.19,-103.32,11,11
-0.3504,0.568,1.3308,37.73,-89.6,-12.25,12,12
-1.0004,0.69,1.1546,67.55,-188.3,57.05,15,7
-0.7745,0.2586,0.8481,104.3,-284.55,66.99,11,7
-0.9823,0.4499,0.8711,129.15,-340.62,116.27,11,2
-1.3967,0.3172,1.2356,128.87,-349.3,207.13,18,7
-2.0935,-0.4128,0.8438,71.68,-333.97,275.8,9,6
-2.9778,-0.4646,0.0039,67.69,-245.7,180.95,13,14
-2.8538,-1.2903,-1.2893,28,-79.66,31.64,13,3
-1.2122,-0.2484,-1.6816,-166.25,139.51,-24.15,11,15
-1.2,-0.4719,3.6771,82.6,412.09,-181.3,12,1015
-1.4308,-1.8783,1.91,-325.71,52.71,-49.28,7,953
-0.8813,-0.0083,0.9906,-78.19,4.34,-26.04,273,672
-0.7017,0.1708,0.9028,-29.68,26.11,-14.14,522,198
-0.2172,0.6998,1.2151,26.39,96.53,-5.81,679,16
-0.0893,0.3772,1.281,-31.64,253.05,-27.37,684,16
-0.7237,0.1737,0.71,-45.64,330.61,-48.65,365,18
-1.5562,-0.082,0.6608,-28.35,316.05,-31.99,28,15
-1.5528,0.0161,0.895,-54.04,211.12,-22.75,15,27
-0.7403,0.0146,1.0965,-53.2,225.96,2.31,8,17
-0.9335,0.3001,2.2038,44.8,95.76,-69.44,14,21
-0.6769,0.9584,2.1535,58.66,-7.49,-119.35,12,12
-0.7554,0.5856,1.6182,101.5,-108.01,-95.76,15,17
-0.7388,0.8394,1.1161,68.04,-217.7,-19.46,13,16
-0.7442,0.4895,0.8398,125.58,-292.04,63.63,16,5
-0.8594,0.3255,0.8872,138.53,-320.81,156.87,18,7
-1.2805,0.3255,1.2332,124.04,-362.18,221.06,15,12
-2.2448,-0.2035,0.6778,75.53,-370.58,278.32,12,13
-3.0832,-0.6568,-0.4094,45.29,-253.89,177.17,16,3
-2.9031,-1.0482,-1.913,12.04,-63.91,56.56,13,7
-4.882,-1.32,-2.1462,-278.46,164.29,-34.58,16,147
-5.836,1.5474,1.6602,46.06,294.49,-216.37,8,969
-1.0302,-1.2288,-0.3148,134.47,17.85,-36.12,112,736
-0.6886,-0.1718,0.893,7.56,-10.08,-15.26,447,419
-0.5441,0.185,0.8682,6.65,27.93,-3.85,631,46
-0.3967,0.1635,1.4147,18.76,98.28,0.07,767,11
-0.3811,0.2777,1.1936,-48.58,250.46,-28.84,745,15
-0.5646,0.2108,0.73,-62.51,338.24,-63.49,441,16
-1.6236,-0.2469,0.6134,-29.12,315.77,-49.14,41,17
-1.6655,0.164,0.7852,-49.7,184.52,-41.09,17,22
-0.4036,-0.0654,1.2224,-60.27,192.08,-22.89,11,20
-0.4143,0.5632,1.9012,27.72,62.79,-99.54,12,15
-0.7793,1.0141,2.0735,25.27,-3.22,-108.29,10,7
-0.4026,0.791,1.6436,45.08,-79.38,-56.56,16,15
-0.6803,0.9404,1.22,67.97,-213.92,18.69,15,7
-0.9194,0.4407,0.9111,121.59,-290.36,78.33,11,0
-0.9126,0.4641,0.8447,136.71,-326.06,134.4,22,9
-1.4767,0.528,1.2127,125.58,-352.73,235.41,13,7
-2.0232,-0.2918,0.6895,96.95,-312.48,299.67,18,6
-2.907,-0.5456,-0.2469,84.21,-257.53,157.01,13,9
-2.6659,-1.4479,-1.3464,78.26,-59.5,-13.51,14,5
-3.8415,-1.8324,-2.9734,-371.28,147.28,-67.34,10,247
-5.2031,2.0789,1.465,98.77,174.02,-215.25,4,995
-1.7334,-1.2649,0.042,164.08,39.83,-38.92,105,712
-0.5368,-0.0195,0.9501,-12.25,7.07,-12.11,455,344
-0.5192,-0.0298,0.936,11.41,21.42,-6.65,629,36
-0.488,-0.2508,0.9921,26.04,77.35,2.03,731,16
-0.3899,0.488,1.159,5.32,212.73,-26.46,716,14
-0.6227,0.2762,0.813,-45.43,297.92,-60.06,501,18
-1.6592,-0.0654,0.6822,-24.01,276.36,-59.15,27,15
-1.2283,0.2323,0.8506,-56,175.35,-64.12,26,25
-0.5905,-0.2386,1.6577,-50.89,162.61,-59.29,16,14
-0.3006,0.9101,2.0935,31.36,48.16,-137.76,14,11
-0.5158,1.3352,1.9081,22.89,-56.28,-96.11,12,11
-0.405,0.7979,1.4869,66.5,-70.84,11.55,10,12
-0.6832,0.772,1.2595,57.75,-163.03,90.02,20,16
-0.6983,0.4138,1.0726,108.22,-251.09,99.26,17,10
-0.8618,0.2796,1.0507,138.46,-309.19,108.01,15,3
-1.259,0.3787,1.2093,140.49,-342.51,173.53,16,7
-2.3248,-0.3216,0.6539,104.58,-298.9,270.13,14,8
-2.9236,-0.7013,-0.5207,20.37,-196.21,172.27,16,12
-2.48,-1.6753,-1.3952,-52.43,-36.4,47.18,8,7
-2.7206,-3.0354,-3.0319,-146.51,283.29,-113.96,3,442
0.9628,2.0311,0.8623,-98.84,9.17,-11.69,12,835
-0.9414,1.4508,0.6998,131.18,-29.4,-47.74,232,583
-0.5651,0.3806,0.7989,-13.93,11.2,-10.64,487,215
-0.5314,0.0381,0.9804,0.84,28.7,-5.95,650,20
-0.3314,0.3304,1.3479,8.12,126.21,0.28,748,10
-0.124,0.2586,1.0663,-15.75,269.22,-34.79,684,12
-0.8164,0.1493,0.6915,-47.25,336.07,-59.01,273,20
-1.9139,0.0449,0.7613,-31.22,272.65,-45.85,14,20
-0.9311,0.122,0.7808,-67.06,170.66,-45.99,10,18
-0.7022,-0.3645,1.6504,-46.62,162.26,-64.33,10,16
-0.2152,0.3479,2.1004,-17.36,94.43,-91.7,15,15
-0.7174,1.0677,2.0662,18.27,-10.57,-78.4,7,9
-0.2323,0.5163,1.5035,85.54,-69.65,-48.44,16,13
-0.7623,0.5646,1.2712,87.64,-219.38,17.22,14,20
-0.8325,0.3362,1.016,136.15,-296.24,72.73,24,7
-0.9267,0.2826,1.0155,152.53,-346.01,145.74,18,10
-1.6021,0.3309,1.303,133.56,-369.95,212.94,15,7
-2.4351,-0.2108,0.5187,95.27,-347.97,258.79,16,8
-3.3438,-0.6769,-0.711,37.38,-217.35,110.53,13,16
-3.3204,-1.1292,-2.358,46.9,24.29,-6.51,14,12
-2.0106,-2.0218,-1.8329,-115.57,276.01,-129.29,18,472
-1.3449,1.2293,0.1508,-117.32,21.49,-49.7,6,929
-0.6256,1.4352,1.0926,-21.49,-0.7,-31.57,302,607
-0.6266,0.163,0.8804,-16.31,15.12,-12.25,528,217
-0.4841,0.1684,0.8979,6.72,63.49,2.66,665,23
-0.0498,0.7379,1.381,-42.63,189.49,-3.01,721,11
-0.4509,0.3353,0.8838,-29.33,284.2,-33.81,593,11
-1.6153,0.0381,0.8086,-51.24,303.31,-52.43,85,25
-1.6353,0.081,0.7837,-76.44,179.13,-57.26,18,15
-0.6627,-0.1776,1.138,-96.67,191.45,-17.92,18,17
-0.7584,0.2245,1.9505,7.98,112,-113.61,20,18
-0.7813,0.69,2.2306,28.91,55.93,-148.19,17,13
-0.3767,0.8823,1.6763,5.81,-42.42,-106.75,14,13
-1.0072,1.1126,1.3449,104.93,-172.55,25.69,16,13
-0.5817,0.4597,0.832,103.11,-219.17,85.89,7,11
-0.9033,0.4802,0.8784,157.22,-313.46,139.16,19,6
-0.873,0.1991,1.161,162.33,-320.39,185.57,16,9
-2.135,-0.0732,1.2825,105.91,-371.35,269.85,21,12
-2.8616,-0.8203,0.1327,71.82,-281.82,205.8,13,17
-3.1935,-0.3992,-1.7592,-83.37,-100.45,-14.91,11,12
-3.0827,-1.4938,-2.2038,-68.46,154.56,-26.11,13,55
-3.8537,0.9628,2.3585,116.62,343.49,-261.66,7,884
-2.0101,-1.3971,-0.2298,-32.62,41.79,-11.06,56,722
-0.6037,-0.1718,0.8467,-30.73,1.19,-11.76,369,451
-0.6046,0.1122,0.8935,-4.06,25.76,-5.18,544,68
-0.2987,0.2469,1.2078,17.57,82.53,8.75,645,19
-0.1923,0.2582,1.1766,-11.76,216.86,-6.79,641,14
-0.5285,0.0683,0.8028,-15.68,303.31,-29.12,397,11
-1.485,0.061,0.6598,2.38,294.56,-22.26,40,27
-1.6773,0.0781,0.6788,-48.3,186.97,-37.1,12,13
-0.8203,0.0664,0.9374,-9.03,198.87,-14.07,16,16
-0.67,0.0181,1.7636,87.64,114.94,-158.62,12,9
-1.0136,0.8047,2.0808,85.26,16.17,-145.74,20,15
-0.1254,0.3523,1.5006,54.32,-47.95,-45.64,15,14
-0.6515,0.5163,1.3522,105.7,-149.03,44.8,16,14
-0.7105,-0.0839,1.0063,168.56,-249.76,43.4,17,10
-0.7174,-0.1308,0.9633,182.56,-303.66,74.69,15,10
-1.2576,-0.4304,1.2302,158.2,-344.75,165.9,16,7
-1.9949,-0.3699,0.8233,33.32,-381.92,182.98,16,13
-2.6186,-0.5222,-0.4207,30.17,-236.95,120.61,3,10
-1.5045,-0.9555,-0.8457,115.29,-20.65,41.23,12,12
-2.4278,-1.5806,-2.5391,12.04,186.76,-270.48,11,434
-4.8668,3.9426,0.7666,26.6,65.8,-88.13,9,1011
-1.8705,-2.2741,1.586,336.21,16.73,-67.41,104,767
-0.7135,-0.7823,0.4177,-15.89,-20.58,-19.95,392,505
-0.611,0.0913,0.9252,-5.67,-0.63,-7.35,528,217
-0.4821,0.1264,0.9394,-17.36,44.1,-2.66,616,18
-0.4285,0.1557,1.2507,-12.18,125.86,-4.41,632,20
-0.4153,0.1786,0.8794,-16.1,219.73,-21.49,508,11
-1.0502,-0.0795,0.7208,13.02,278.39,-19.53,160,16
-1.4132,0.2586,0.8467,-42.56,198.31,-4.62,15,15
-0.8252,-0.305,1.0707,-90.3,161.49,21.28,32,18
-0.3538,-0.468,1.6514,48.79,80.85,-142.87,9,14
-0.2367,0.8852,1.7753,-64.05,-15.82,-251.16,11,15
-0.1835,0.9531,1.3576,-75.81,-62.86,-189.84,12,7
-0.6144,1.3869,1.1644,-59.15,-136.43,-30.38,14,10
-0.8701,1.0243,0.8057,-41.09,-205.66,88.48,10,13
-0.9638,0.5392,0.6866,42.77,-278.18,122.36,16,13
-1.2546,1.1122,0.6183,45.29,-325.01,170.87,10,17
-1.7378,1.179,0.8203,53.9,-283.01,285.95,12,6
-2.5381,1.2717,0.1313,-22.89,-185.5,415.66,18,10
-2.7592,0.2118,-0.6959,37.1,-34.65,389.97,16,8
-2.5088,-1.8139,-1.5816,55.3,121.38,179.69,11,12
0.1088,-2.2916,1.179,-82.74,197.82,-74.76,12,451
-2.5932,3.0524,-0.4358,90.79,-106.75,-80.43,8,844
-1.8544,-1.4567,0.6368,144.76,-7.28,-51.66,98,592
-0.7003,0.2167,0.7852,-6.51,4.83,-15.4,428,181
-0.6017,0.1518,0.8857,-8.96,17.22,-10.22,582,15
-0.4255,0.1854,1.1156,3.71,59.64,-3.92,701,10
-0.3523,0.0844,1.1444,-26.18,162.89,-5.39,707,11
-0.5446,0.1147,0.8511,-15.47,233.1,-24.5,536,11
-1.4972,0.0176,0.814,-88.41,221.83,-11.9,82,13
-1.0941,-0.3396,0.9887,-226.73,159.67,10.08,20,23
-0.5529,-0.2181,1.0785,-246.82,151.69,55.58,16,11
-0.6725,-0.0454,2.1736,-51.66,66.15,-73.57,5,12
0.0947,0.9867,1.4079,-156.52,-101.22,-175,12,11
-1.0409,2.0198,1.2029,-98.84,-185.57,-98.35,12,11
-0.7915,1.5894,0.8813,-109.48,-203.28,22.4,16,13
-0.9111,1.5616,0.5988,-28.42,-217.56,170.24,16,18
-1.2327,1.1507,0.713,53.76,-240.45,240.94,12,8
-1.4918,1.1488,0.7925,51.8,-270.97,271.39,6,15
-1.8339,1.4982,0.3382,1.19,-203.91,393.82,12,16
-2.4185,0.3177,-0.2738,49.98,-42.77,473.55,9,12
-2.4019,-0.9296,-0.7164,-17.92,30.24,284.41,12,9
-3.7678,-1.1541,-1.1951,-186.27,148.12,-56.07,10,80
-3.4546,1.7988,1.4894,121.66,269.71,-240.94,12,945
-1.0492,-0.9228,1.2249,-277.2,70.63,-69.16,13,760
-0.7227,0.022,0.8799,-62.51,17.36,-17.22,196,538
-0.588,0.1235,0.8901,-27.58,0.77,-15.4,397,319
-0.5622,0.1562,0.9096,-11.69,18.48,-10.5,552,53
-0.4231,0.2723,1.1034,-11.76,56.14,-7.49,659,13
-0.3924,0.1415,1.1429,-44.38,152.11,-17.92,704,7
-0.5822,0.1737,0.8828,-48.3,207.34,-39.62,607,9
-1.2468,0.6832,0.8686,-109.41,200.2,-74.55,216,8
-1.2444,0.2352,1.0346,-221.97,128.1,-55.3,15,23
-0.7808,-0.0459,1.1263,-335.51,137.62,-14.35,24,25
-0.3001,0.4304,1.9759,-146.93,27.79,-14.84,17,9
-0.1723,1.1131,1.4874,-135.73,-94.5,-64.47,16,16
-0.6739,1.504,1.1112,-111.72,-186.2,-31.01,13,11
-1.1668,1.8422,0.7335,-48.23,-245.7,52.99,13,11
-1.4591,1.5767,0.6281,56.35,-261.45,188.09,7,16
-1.5362,1.4313,0.6242,122.43,-250.67,269.08,11,9
-1.8105,0.9013,0.9062,78.4,-208.6,367.85,11,3
-1.8705,-0.4363,0.2289,117.11,-126.7,424.06,15,8
-2.6986,0.0527,-0.3777,40.25,-69.3,264.81,14,12
-1.6236,-0.4314,-0.9306,-13.51,25.69,100.03,17,10
-3.5878,-2.4361,-1.2727,-524.58,204.33,-57.82,11,256
-5.532,0.1342,1.8222,-35.84,210.77,-201.04,16,932
-0.8106,-1.0219,-0.2411,-30.87,-0.14,-25.97,44,770
-0.6627,-0.0425,0.7491,-36.12,1.89,-15.47,315,574
-0.63,-0.121,0.9897,-14.42,3.15,-10.5,516,271
-0.7637,-0.1981,1.3298,26.25,31.99,-11.2,660,21
-0.2342,0.3606,1.2786,-32.06,136.22,-17.78,744,14
-0.3762,0.3152,1.015,-18.06,222.46,-49.63,689,13
-0.6739,0.1801,0.8394,-60.97,269.92,-74.06,341,12
-1.3967,-0.2274,0.713,-81.97,208.81,-60.48,46,16
-1.0716,0.1118,1.038,-145.04,163.87,-49.49,11,15
-0.8779,-0.0083,1.3361,-132.86,195.93,-18.69,15,24
-1.0873,0.5939,2.4439,32.34,84.56,-76.86,12,10
-0.0498,0.793,1.6172,-27.79,-49,-96.81,14,11
-0.3528,0.9428,1.219,20.58,-107.45,-18.69,16,14
-0.4821,0.7788,0.8091,48.65,-217.28,65.17,12,8
-0.8618,0.5446,0.7954,95.97,-290.99,122.64,12,13
-1.1341,0.7666,0.975,97.37,-316.12,189.21,11,12
-1.9525,0.527,0.8901,59.43,-316.19,285.67,19,7
-2.5025,-0.5114,0.0561,73.64,-197.4,272.51,15,10
-2.643,-0.8316,-1.1136,26.25,-86.31,78.68,17,14
-2.3853,0.4826,-0.8628,21.07,84.77,-56.42,15,13
1.1741,-1.8676,1.4152,-158.83,234.92,-50.33,11,660
0.4402,0.7574,3.3482,-278.18,132.86,-68.46,16,743
-0.4099,0.8233,0.8418,-70.63,5.81,-15.89,309,532
-0.6368,0.2035,0.8462,-9.87,4.62,-11.69,531,191
-0.5119,-0.0171,0.9726,-2.24,31.29,-7.14,657,17
-0.2791,0.3723,1.2454,-4.06,106.89,-6.65,737,13
-0.3553,0.2367,1.0004,-15.4,207.2,-29.12,696,12
-0.6398,0.1464,0.7003,-51.17,258.72,-56.98,412,14
-1.6821,-0.122,0.6647,-40.04,207.97,-46.2,44,14
-1.1985,0.1791,0.9335,-75.04,171.99,-47.95,13,16
-1.0458,-0.1669,1.2385,-48.02,188.51,-22.82,18,14
-1.0092,0.4665,2.2599,35.63,102.13,-109.9,12,14
-0.082,0.9667,1.6758,6.37,-25.06,-108.01,16,16
-0.1523,0.7169,1.1658,81.55,-77.14,-2.73,13,11
-0.3626,0.4695,0.8355,83.37,-182.56,57.82,11,9
-0.5895,0.2298,0.8389,87.29,-222.6,76.09,4,7
-0.9023,0.3265,0.8784,107.17,-282.73,126.63,17,10
-1.5587,0.4294,1.1097,126.07,-320.18,185.78,17,11
-2.0911,-0.4285,0.3299,69.23,-267.89,218.19,18,7
-2.6889,-0.5129,-0.4675,75.11,-168.91,124.46,15,0
-1.3249,-0.3211,-0.8911,117.04,26.18,11.62,15,9
-1.1522,-1.6309,-1.1741,-150.78,206.22,-119.21,8,391
-0.3323,-0.8154,1.4572,-367.64,-99.05,-69.02,7,808
-0.2669,0.856,1.2644,14.42,2.31,-18.13,252,595
-0.6642,0.3089,0.8252,-4.48,7.49,-12.25,470,244
-0.1186,0.3396,1.1644,23.87,36.89,-5.25,591,11
-0.3001,0.3138,1.2102,4.34,99.61,-3.71,669,11
-0.3767,0.3026,1.0277,-15.54,199.15,-25.13,620,13
-0.6695,0.1767,0.6954,-43.47,249.9,-40.18,384,13
-1.3893,-0.0693,0.7588,-5.6,244.02,-30.31,42,15
-1.2268,0.1796,0.9077,-39.48,200.76,-37.45,21,16
-1.1307,-0.0874,1.1366,-26.25,211.54,-23.73,14,15
-1.0136,0.2298,2.2755,139.65,113.47,-118.16,16,20
0.2015,0.4338,1.6719,10.64,-18.62,-153.09,13,10
-0.2123,0.8623,1.3196,55.72,-87.99,-49.49,18,9
-0.5202,0.3709,0.9882,66.22,-210.07,58.24,14,15
-0.7491,0.2718,0.8999,96.39,-292.88,84.35,16,12
-0.8745,0.4782,0.9365,122.57,-318.43,119.14,17,11
-1.6504,0.895,0.9443,105.35,-354.2,231.42,11,3
-2.5913,-0.4782,0.0381,86.8,-242.83,265.93,22,8
-2.9924,-0.6871,-1.0536,27.51,-120.12,96.88,11,11
-3.275,-1.7046,-1.669,-283.01,98.91,-63.77,15,9
-4.5199,0.8462,3.1461,208.6,358.26,-222.04,8,867
-1.5362,-1.1356,-0.0571,-196.77,-1.47,-18.97,55,662
-0.6534,-0.2386,0.7876,-52.15,9.31,-16.31,354,344
-0.5983,0.0712,0.8935,-7.98,18.55,-10.78,555,50
-0.6656,0.2987,1.2644,42.49,57.54,-4.2,664,13
-0.3582,0.2684,1.1883,-28.91,170.87,-15.26,698,11
-0.5178,0.2484,0.7989,-21.63,240.38,-32.48,569,16
-1.016,-0.0264,0.6773,-46.34,276.36,-50.68,193,16
-1.3913,0.0166,0.6066,-31.22,214.41,-27.79,11,19
-1.0297,0.0312,0.9706,-63.49,175.42,-28.35,16,19
-0.9916,0.0556,1.4884,-26.04,189.98,-17.43,15,11
-0.6437,1.1366,2.2116,8.19,26.04,-147.14,10,12
-0.2264,0.6559,1.6143,70.77,-40.81,-133.7,10,12
-0.5148,0.9599,1.2766,40.25,-139.86,-25.34,14,10
-0.5822,0.6178,0.9482,80.29,-238.91,84.77,10,7
-0.7696,0.2713,0.8799,117.95,-309.19,132.3,15,12
-1.1131,0.2538,1.0565,98.91,-333.06,186.62,20,5
-2.2302,-0.1615,0.508,62.93,-335.58,262.99,21,12
-2.8197,-0.6324,-0.4656,54.6,-183.4,199.15,22,16
-2.4219,-0.4904,-1.2688,67.48,-46.83,35.77,7,10
-2.7933,-2.0867,-2.6972,-125.09,178.92,-89.32,8,141
-1.6904,1.6821,-1.6372,58.38,-113.19,-35.42,3,727
-2.0086,-0.6549,0.2616,167.58,-38.43,-31.99,179,557
-0.7706,0.1747,0.7969,9.59,-4.97,-14.49,428,242
-0.568,0.0756,0.9233,1.68,20.02,-5.39,579,23
-0.4412,0.1732,1.0931,13.16,69.72,0.21,664,17
-0.3689,0.1806,1.1341,-29.96,176.19,-10.85,684,17
-0.5592,0.2064,0.7959,-16.24,244.79,-33.88,554,10
-1.0878,-0.0747,0.7022,-34.51,287.7,-49.14,147,15
-1.363,0.0488,0.7247,-63.49,210.35,-27.44,24,21
-0.8247,0.0395,1.0311,-84.7,201.6,-16.31,17,10
-0.7837,-0.184,1.9544,14,161.84,-30.66,10,7
-0.6812,1.3718,2.2921,69.65,17.57,-175.21,9,11
-0.2196,0.6793,1.5845,70.91,-59.78,-137.34,14,18
-0.4114,1.036,1.1702,45.01,-140.35,-5.32,13,11
-0.4372,0.6246,0.8852,80.92,-245.42,113.12,10,16
-0.8159,0.3558,1.119,93.52,-293.3,146.58,7,7
-1.138,0.2489,1.1234,91.98,-333.06,190.19,20,4
-2.0028,0.2352,0.8564,45.15,-346.22,218.12,19,12
-2.6918,-0.6822,-0.0903,102.55,-233.59,198.8,16,9
-2.5625,-1.2952,-1.5284,25.27,-43.54,29.26,18,11
-2.9744,-1.5152,-1.1824,-410.2,160.37,-111.44,15,35
-14.4946,3.8371,6.2137,443.24,-2.17,-150.78,3,909
-1.1151,-1.4406,0.6695,154.77,28.63,-21.63,170,657
-0.7091,-0.2601,0.8125,-29.26,4.13,-7.84,399,382
-0.6315,-0.265,0.8608,-3.71,19.39,-6.86,540,57
-0.4602,0.1401,1.1058,8.33,65.87,-7.49,636,12
-0.3836,0.1342,1.0751,-22.96,161.14,-15.12,638,11
-0.5339,0.2064,0.7935,-26.32,213.08,-35.35,536,15
-0.8594,0.0429,0.6407,-48.3,240.59,-44.38,214,17
-1.2117,0.0878,0.8428,-23.87,226.38,-21.21,30,19
-1.2039,0.041,1.1497,-83.51,228.62,-27.51,19,15
-1.5099,0.0049,2.2936,39.48,221.34,-24.64,11,7
-0.7281,0.7984,2.1916,25.06,17.22,-176.89,16,11
-0.3094,0.8603,1.6187,67.34,-73.43,-141.96,18,9
-0.2572,0.774,1.1224,43.19,-192.36,11.34,15,10
-0.4524,0.264,0.9077,90.37,-278.39,110.04,12,10
-0.8486,0.2747,0.9374,127.96,-346.57,129.01,15,9
-1.5626,0.6368,1.0692,132.79,-370.3,184.03,18,5
-2.3009,-0.285,0.3699,79.03,-310.73,274.47,20,5
-3.2925,-0.7086,-0.6739,74.13,-158.83,198.03,11,17
-2.805,-1.0692,-0.8516,43.26,-19.32,-28.14,16,10
0.1732,-1.5704,0.0639,-93.94,220.29,-74.97,5,433
-3.1666,-0.5236,0.1347,-314.51,-140.14,-68.67,3,838
-0.814,1.2322,0.7891,163.38,-36.61,-25.62,244,614
-0.6978,0.1547,0.8774,27.51,-3.36,-11.76,492,282
-0.5705,0.1401,0.9091,6.51,17.01,-3.22,623,27
-0.4046,0.3792,1.1112,-17.78,74.2,-1.96,704,13
-0.4241,0.1542,1.0321,-26.18,179.55,-21.91,705,11
-0.612,0.2133,0.7813,-42.14,235.9,-53.9,494,14
-1.3176,-0.1049,0.7657,-77.84,234.99,-43.96,99,22
-1.1883,-0.1981,0.9301,-111.16,208.6,-26.6,18,17
-1.1961,-0.1235,1.0468,-80.85,222.11,-0.84,24,16
-0.8257,-0.1108,2.4595,98.56,142.8,-77.84,12,17
-0.1869,0.917,1.8695,-14.07,-23.38,-186.2,14,12
-0.1415,0.9394,1.3888,52.08,-76.44,-94.08,12,9
-0.4773,0.9179,1.1361,47.04,-189.28,47.88,16,19
-0.6037,0.4436,0.9887,108.78,-274.68,124.6,12,10
-0.9565,0.6271,0.995,134.33,-335.16,152.53,12,16
-1.7339,0.5671,1.1912,160.79,-355.95,233.24,16,16
-2.482,-0.2269,0.4734,107.38,-275.31,277.97,18,6
-3.0798,-0.2503,-0.6847,82.6,-147.28,171.01,7,14
-2.2145,-1.3064,-1.0077,29.89,79.52,-5.88,14,7
0.0732,-1.8617,1.098,-100.8,225.54,-155.61,9,510
1.1839,-0.0361,-0.103,-250.88,-1.54,-97.86,5,840
-0.2211,0.8418,1.1283,3.78,-6.93,-30.45,279,547
-0.5783,0.1274,0.8862,-9.1,9.17,-11.62,552,164
-0.5261,0.2001,1.0043,7.98,35,-4.34,680,16
-0.3279,0.1815,1.2151,-35.63,142.31,-10.5,752,13
-0.3982,0.2206,0.9087,-23.59,223.37,-38.57,689,6
-1.059,0.5129,0.6583,-52.08,242.2,-58.24,355,15
-1.2093,-0.2747,0.6295,-40.25,237.16,-41.79,52,8
-1.3117,0.0073,0.9584,-82.18,198.73,-29.19,17,17
-1.0468,-0.061,1.0585,-79.87,233.24,-10.29,20,19
-0.9023,-0.1723,2.4849,31.15,178.08,-47.53,16,7
-0.4797,0.6398,2.0413,42.35,17.08,-152.25,18,7
-0.3977,0.9511,1.5284,94.99,-61.53,-105.49,15,14
-0.3792,0.5383,1.0082,79.94,-215.46,66.92,16,17
-0.8711,0.3816,0.9467,147.84,-314.65,150.64,18,8
-0.9692,0.3274,0.9267,133.84,-333.06,186.48,9,11
-1.7783,0.1147,1.2273,117.67,-352.66,239.05,12,7
-2.5732,-0.3914,0.3299,63,-327.11,199.5,20,7
-3.3487,-0.8506,-0.9653,86.31,-205.87,83.58,15,13
-2.7552,0.1806,-2.4595,-93.03,37.31,-54.32,14,8
0.6437,-1.8085,2.4307,26.6,226.66,-185.36,5,671
3.7805,-0.6407,3.3594,-372.33,154.98,-117.04,3,836
-0.0293,1.3337,1.2019,-45.08,6.58,-26.6,206,607
-0.5583,0.0708,0.7901,6.3,3.71,-19.6,447,250
-0.5544,0.2396,1.0355,2.73,43.12,-7.98,587,12
-0.2679,0.1318,1.2937,-21.91,142.59,-10.92,685,18
-0.3387,0.1874,0.9521,-32.34,250.11,-40.81,656,10
-0.7593,0.2152,0.6012,-50.33,289.8,-57.19,337,13
-1.3069,-0.0493,0.6378,-43.26,273.56,-42.56,41,15
-1.5167,0.0849,0.9755,-88.62,208.46,-40.6,24,15
-0.9428,-0.0747,1.0355,-68.6,224.56,-13.51,21,14
-1.2625,0.4529,2.4859,98.56,112.21,-102.55,12,11
-0.4968,0.6105,1.8237,49.98,-29.26,-149.24,10,16
-0.6027,0.7769,1.4689,73.57,-102.83,-67.9,16,14
-0.4699,0.5417,0.9755,81.62,-213.15,51.1,14,11
-0.7266,0.2811,0.8652,133.49,-300.3,110.32,12,5
-0.8994,0.2987,0.9989,136.78,-326.69,152.53,18,0
-1.5997,0.0888,1.2727,114.31,-358.19,226.45,17,14
-2.4678,-0.0527,0.5168,52.64,-346.99,218.68,11,3
-2.9812,-0.5534,-0.8086,85.26,-201.6,112.84,11,12
-4.0909,-2.1057,-2.073,-234.08,73.57,12.53,11,10
-3.6654,0.0517,3.6063,137.34,331.45,-183.4,12,894
-2.316,-1.1292,-0.0981,-294.63,-6.65,-12.11,34,719
-0.6642,-0.2723,0.9404,-62.86,10.15,-20.02,372,390
-0.4382,-0.0015,0.8042,-10.85,22.33,-13.16,600,51
-0.4534,0.284,1.056,1.47,73.01,-7.77,722,15
-0.2991,0.4636,1.139,-51.1,196.42,-18.62,753,18
-0.4875,0.3274,0.9111,-31.71,270.76,-42.49,631,11
-1.1956,0.1127,0.6808,-69.58,287.91,-60.41,140,19
-1.4445,0.0376,0.7525,-51.59,231.49,-34.51,17,24
-0.9526,-0.0581,0.8994,-79.87,200.48,-15.61,23,15
-0.7584,-0.2586,1.9095,-14.56,161.7,-21.98,12,12
-0.8779,0.7993,2.3268,83.58,34.02,-138.04,20,13
-0.0791,0.9062,1.5338,51.94,-74.06,-122.71,11,9
-0.6622,0.7832,1.4435,85.54,-160.37,12.95,15,10
-0.5612,0.4329,0.9018,81.9,-249.55,87.57,13,11
-1.0604,0.1576,0.9633,136.01,-322.28,111.09,15,8
-0.791,0.0986,0.8906,128.03,-323.96,146.3,16,3
-1.8964,0.5183,0.9882,31.29,-329.56,257.81,11,7
-3.0744,-0.2904,0.205,52.5,-234.78,256.9,20,9
-2.9587,-0.9892,-1.4811,6.44,-114.31,85.12,14,9
-2.2897,-0.3787,-1.5079,68.6,43.82,7.56,16,7
-0.5583,-0.7037,0.6915,-182.42,167.86,-102.2,6,459
-3.5351,-1.7324,-1.0555,-617.47,-265.93,122.22,8,999
-2.3536,1.1766,0.3758,188.51,11.27,-21.91,49,888
-0.2923,0.4426,0.8115,4.13,0.77,-9.31,217,783
-0.5266,-0.0039,0.9418,12.32,8.4,-1.26,326,528
-0.4802,0.1976,0.9965,28.14,49.84,-2.73,432,18
-0.2811,0.406,1.2342,-27.86,132.72,-29.75,483,10
-0.3987,0.059,0.8862,3.22,213.43,-39.97,375,15
-1.1712,0.0454,0.5017,-2.24,207.27,-29.61,92,16
-1.1897,0.2157,0.9082,-51.8,152.95,-41.3,13,20
-1.1814,0.2801,1.4757,-51.45,191.73,-53.06,11,14
-0.6193,1.4562,3.0627,-35.21,121.59,-50.96,16,11
0.7613,0.7398,2.3317,53.48,-31.71,-69.02,7,13
0.3626,0.9579,1.9281,55.02,-127.26,-35.56,12,9
-0.0825,0.6129,1.4157,88.41,-216.93,68.32,8,14
-1.1244,0.3274,1.4215,126.07,-315,119.49,11,15
-1.6607,0.5568,1.1122,93.38,-350.56,120.89,6,9
-1.8354,0.0586,0.8096,100.45,-307.86,159.74,15,9
-2.0462,-0.1044,0.2757,96.18,-213.5,159.32,17,7
-2.3468,-0.7032,-0.7798,66.15,-93.52,95.9,10,4
-2.074,-1.0658,-0.8057,39.76,34.72,0.7,9,6
-2.9758,-1.2839,-1.7129,-488.88,260.26,-125.79,7,333
-6.9906,1.0799,2.3531,-137.83,215.95,-193.9,8,1106
-0.4641,-0.8594,0.7867,-210.7,32.27,-29.4,7,1007
-0.8291,-0.1654,0.874,-45.92,-5.67,-19.6,120,871
-0.5641,0.0771,0.9082,-35.07,4.69,-18.97,317,598
-0.8804,-0.0961,0.8423,16.31,25.9,-18.76,466,85
-0.4348,0.5002,1.1302,5.88,77.42,-23.87,601,13
-0.366,0.1449,1.1078,-24.01,172.55,-36.68,590,15
-0.8525,0.3148,0.7486,-47.04,234.43,-51.1,371,21
-1.1078,0.1074,0.7632,-78.4,192.43,-63.77,56,18
-1.0102,0.1147,1.0638,-106.75,203.49,-82.74,15,17
-1.2283,0.3157,1.6407,-142.87,241.01,-92.61,17,15
-0.5978,0.7271,2.624,-90.65,90.65,-55.51,8,18
0.4802,1.2312,1.889,20.44,-26.74,-41.09,13,15
0.0942,0.8711,1.4245,67.13,-138.53,35.07,13,18
-0.5988,0.6178,1.2566,113.54,-239.54,103.32,18,14
-1.0414,0.4338,1.1668,136.85,-313.46,150.29,14,13
-1.707,0.5622,1.1219,94.71,-337.54,221.62,22,13
-2.4068,-0.3143,0.528,92.19,-276.92,254.52,13,13
-2.9451,-0.5949,-0.7432,58.03,-182.7,110.67,16,8
-2.3497,-1.6504,-1.6099,100.59,-19.6,15.05,11,11
-2.704,-1.9535,-1.261,-547.82,213.99,-80.22,8,174
-7.1272,1.6382,-0.5339,36.82,-41.44,-153.16,7,969
-2.0169,0.5544,0.3777,106.19,-42.77,-29.61,150,808
-0.4324,0.1381,0.8945,-10.36,6.37,-8.26,395,519
-0.5061,0.0166,0.9887,-1.26,24.01,-10.71,543,83
-0.3933,0.1752,1.1688,11.2,80.57,-2.31,652,13
-0.3821,0.1786,1.0785,-9.59,181.37,-22.05,647,12
-0.5876,0.2386,0.7945,-39.34,243.25,-40.53,480,14
-1.648,-0.1484,0.8169,-46.97,234.99,-54.95,56,17
-1.1663,0.2401,1.0507,-67.48,190.4,-53.76,16,13
-0.9862,0.0122,1.6978,-71.82,205.94,-33.6,16,13
-0.8052,0.9667,2.6162,76.79,83.23,-93.87,18,16
-0.0054,0.6529,1.852,30.59,-31.92,-73.99,9,7
-0.2528,0.7593,1.4015,42.21,-106.26,29.75,10,7
-0.4934,0.4441,1.0848,76.23,-204.96,75.95,8,8
-0.8081,0.1767,1.0882,125.79,-293.23,87.57,16,12
-0.9784,0.1127,1.18,121.73,-331.52,125.79,16,9
-1.9066,-0.1015,0.7359,57.12,-352.38,221.2,17,9
-2.9607,-0.6759,-0.1157,79.1,-214.06,211.12,15,7
-2.8055,-0.3011,-1.9876,-44.38,-45.43,-13.93,10,7
-2.5737,-1.5553,-2.3038,-80.15,172.34,-89.46,7,104
-9.3462,2.6215,2.5078,172.9,1.05,-173.6,10,825
-1.0658,-1.0609,1.2098,106.96,13.37,-43.26,124,665
-0.7144,-0.1025,0.7613,18.48,-4.2,-14.63,411,333
-0.3884,0.082,1.0594,9.66,31.85,-6.23,624,16
-0.4446,0.0961,1.1805,1.26,103.39,-3.29,712,13
-0.3928,0.1274,1.0453,-25.83,207.13,-24.29,683,16
-0.6681,0.1986,0.7388,-42.77,263.2,-39.97,411,18
-1.5138,-0.0669,0.7422,-17.71,258.09,-35.56,35,19
-1.4093,0.1859,0.9521,-43.89,197.68,-31.29,14,19
-0.8833,0.0678,1.1849,-46.55,222.25,-21.21,17,12
-0.8555,0.3138,2.3429,86.52,113.96,-106.61,14,16
-0.1845,0.8052,1.933,58.8,-29.89,-128.52,12,12
-0.1405,0.6842,1.3771,78.33,-94.29,-18.69,12,7
-0.4006,0.3162,1.0965,79.73,-198.24,76.02,13,3
-0.7281,0.2455,0.9706,109.13,-303.24,81.55,24,11
-1.0824,0.3577,0.935,108.43,-342.44,112.35,14,8
-2.1409,0.6217,0.9618,50.05,-352.87,207.27,20,16
-2.523,-0.4958,0.0859,47.39,-255.08,226.45,13,14
-2.9153,-0.6183,-0.8838,54.46,-125.58,94.78,7,9
-2.6908,-1.5104,-1.6368,-121.94,46.48,-73.5,10,7
0.6407,-0.8769,0.7388,-69.72,221.06,-84.28,12,496
4.8414,-0.7149,2.9382,-255.01,169.96,-96.11,6,785
0.0547,1.0619,1.2986,-46.76,4.34,-27.23,154,644
-0.5958,0.306,0.8794,10.01,5.18,-13.93,375,307
-0.8603,-0.307,0.9492,36.54,14.49,-9.31,552,23
-0.305,0.3226,1.1488,-4.55,101.29,-2.8,640,14
-0.3099,0.2625,1.0804,-20.86,210.28,-23.45,628,7
-0.6588,0.184,0.7271,-29.26,263.13,-38.22,412,9
-1.4928,-0.2128,0.8169,-24.36,267.33,-22.4,72,15
-1.3644,0.0205,0.978,-52.85,236.46,-19.53,20,18
-1.0341,0.0166,1.0892,-49.56,244.65,-15.26,13,14
-0.8428,0.1098,2.4951,107.94,122.99,-120.47,14,13
-0.0781,0.9013,1.8276,80.22,-56.63,-189.42,7,7
-0.2635,0.9072,1.3366,56.63,-144.27,-33.18,17,3
-0.6071,0.569,1.0292,65.87,-232.4,98.35,10,6
-0.8745,0.2176,0.9794,102.27,-314.79,125.79,15,7
-1.1649,0.4343,0.9706,122.85,-347.41,131.32,15,8
-2.0764,0.0224,0.854,100.8,-349.93,229.11,12,10
-2.6591,-0.8989,-0.1176,67.62,-240.94,246.33,17,16
-3.0817,-0.5158,-1.1131,18.27,-98.91,94.43,13,8
-2.888,-1.7222,-2.1282,-192.99,133.07,-57.68,10,35
-3.6834,1.6729,3.0315,210.98,348.39,-255.57,7,955
-2.2877,-1.6392,-0.5261,-115.01,25.9,-12.39,11,836
-0.6305,-0.3845,0.873,-17.29,0.21,-17.01,312,569
-0.61,-0.0161,0.8774,-3.71,7.98,-8.54,511,191
-0.5285,0.0795,1.0307,10.78,43.82,-2.52,638,22
-0.3245,0.2645,1.2625,-31.08,140.98,-9.94,678,13
-0.3196,0.2089,0.9204,-24.92,231.35,-35.49,596,11
-0.8613,0.124,0.6993,-58.24,273.98,-50.96,229,17
-1.1585,-0.1952,0.8003,-30.87,272.44,-5.18,23,24
-1.5274,0.3382,1.1502,-47.04,251.09,-7.77,15,16
-0.9423,0.7188,1.4567,-89.11,248.71,-33.81,9,16
-0.8516,0.9726,2.4629,7.21,61.74,-52.99,12,11
0.0927,0.2664,1.7817,65.38,-64.33,-107.17,15,12
-0.4519,0.4392,1.3859,91.84,-212.73,-42.21,11,8
-0.4431,0.3152,0.7374,91.63,-282.17,17.36,12,8
-0.8433,0.4529,0.9321,120.68,-336.56,85.68,8,8
-1.1244,0.6285,1.0053,114.94,-348.18,150.08,16,12
-2.0911,0.1142,1.0814,88.9,-334.88,243.6,19,10
-2.7045,-0.7813,-0.2025,67.55,-233.24,235.2,24,16
-2.5542,-0.4485,-0.9975,2.94,-34.37,24.92,14,9
-3.1881,-1.8305,-2.766,-134.12,168.07,-77.63,6,176
4.9112,-0.385,2.724,-184.03,126.77,-120.47,5,799
-0.5075,0.9955,1.2893,43.26,-21.7,-28.14,229,639
-0.6071,0.1,0.8843,-14.14,7.42,-10.92,458,311
-0.5251,0.1859,0.9697,8.12,27.72,-5.46,589,19
-0.3802,0.1493,1.139,6.86,94.15,-6.16,684,16
-0.4065,0.2645,1.1043,-38.36,203.21,-22.26,687,11
-0.6876,0.2679,0.6212,-33.39,255.71,-32.48,497,5
-1.2166,-0.1708,0.7491,-31.08,270.2,-44.8,100,21
-1.1048,0.082,0.9892,-64.4,229.04,-36.33,11,17
-1.0048,0.0727,1.0477,-74.83,224.91,-34.09,20,20
-0.428,-0.0415,2.482,65.38,136.5,-83.16,15,16
-0.1518,0.7803,2.1755,33.74,-35.49,-148.54,6,7
-0.1459,1.078,1.5304,60.69,-125.51,-50.33,15,7
-0.3728,0.4812,1.0321,74.34,-226.17,82.18,11,18
-0.8184,0.408,0.9194,92.12,-296.24,104.86,16,6
-1.0448,0.5446,0.8696,103.53,-324.03,146.09,16,10
-1.8373,0.5065,1.1268,79.66,-336.49,227.29,11,9
-2.3902,-0.448,0.2054,53.48,-273.63,223.02,17,13
-2.9748,-0.6632,-1.0624,35.77,-173.11,50.75,14,8
-2.3941,-0.8886,-1.3391,103.39,1.05,21,18,4
-0.8545,-1.7031,-1.728,-136.36,251.51,-104.37,8,479
-1.546,0.0839,-0.2606,-239.54,-112.98,-69.58,8,923
-0.7354,0.7271,0.5436,-20.3,-15.68,-27.58,170,734
-0.612,0.2923,0.7574,-8.47,2.8,-11.2,428,403
-0.7398,0.0293,0.893,17.01,10.99,-1.89,574,39
-0.4343,0.2606,1.2429,18.41,81.76,-5.39,683,10
-0.3762,0.2123,1.099,-2.52,193.2,-26.11,669,18
-0.5866,0.3026,0.7959,-54.53,258.58,-53.27,447,15
-1.4196,-0.1401,0.8501,-35.98,270.27,-47.32,33,18
-1.5191,0.2567,1.1444,-53.06,216.65,-47.95,17,20
-0.8408,-0.0908,1.9969,-12.18,164.01,-35.21,12,14
-0.3938,1.4513,2.2897,47.32,23.87,-132.65,11,12
0.0595,0.8237,1.5738,46.48,-73.15,-56.21,9,7
-0.4621,0.7515,1.2381,34.44,-137.69,57.68,17,8
-0.8184,0.2845,1.0521,65.03,-247.1,98.56,13,7
-0.8979,0.1962,0.8916,106.61,-308,94.5,17,7
-1.5279,0.447,0.9545,139.16,-354.83,150.5,15,6
-1.8773,-0.4089,0.4143,72.8,-300.16,248.15,16,5
-2.9251,-0.225,-0.3865,59.78,-198.66,190.26,11,13
-2.684,-1.0497,-1.2668,43.47,-48.58,9.94,16,8
-2.2565,-2.4341,-2.6162,-286.23,207.2,-77.63,20,312
-6.4406,1.0551,2.0237,-175.42,140.63,-155.96,3,977
-0.2006,-0.3543,0.6681,147.49,16.73,-57.33,60,800
-0.7203,-0.0351,0.793,10.57,-7.7,-18.13,376,515
-0.5866,0.0259,0.8921,-3.29,7.63,-7.21,551,180
-0.4743,0.1923,1.0468,8.82,55.16,-4.76,672,17
-0.3162,0.2255,1.2161,-31.29,155.61,-14.7,719,17
-0.5446,0.4055,0.875,-28.49,221.55,-49.77,633,10
-0.8599,0.0834,0.6573,-74.27,278.32,-69.86,245,15
-1.3147,0.0371,0.8174,-29.82,248.64,-38.92,36,20
-1.2566,0.4431,0.9902,-58.87,219.45,-42.56,18,14
-0.8823,0.1674,1.9686,12.53,189.14,-50.96,14,12
-0.6866,0.9731,2.136,29.89,15.19,-137.06,15,13
-0.0093,1.2088,1.6143,18.97,-58.24,-70.7,17,12
-0.4621,0.6949,1.178,35.42,-181.51,70,20,10
-0.7486,0.3255,0.9965,82.46,-270.13,111.58,13,0
-1.0238,0.2464,0.9262,116.62,-334.11,103.39,14,9
-1.3274,0.4065,1.0155,126.21,-330.61,166.18,15,10
-2.2087,-0.2625,0.6134,97.3,-295.26,262.99,17,3
-2.8431,-0.6198,-0.364,72.52,-194.18,193.62,18,7
-1.9022,-0.8725,-1.5206,-21.14,-28.84,46.55,14,7
-3.2423,-1.9544,-2.3888,-211.61,164.85,-82.39,10,184
-6.9633,1.7309,2.2731,-37.59,125.86,-182.7,5,870
-0.0468,-1.2156,0.4636,157.43,-2.59,-49.98,60,746
-0.6739,-0.163,0.8398,12.39,-10.64,-13.72,334,503
-0.6007,-0.0122,0.8711,-17.85,9.59,-8.4,507,177
-0.629,0.3353,1.0038,-15.33,51.59,-2.52,641,17
-0.1405,0.3372,1.3903,-19.81,153.23,-11.69,728,14
-0.222,0.3133,0.9984,-17.85,281.05,-49.84,674,13
-1.0521,0.2777,0.6495,-68.11,324.52,-77.49,259,19
-1.3913,-0.0717,0.5993,-31.29,286.79,-51.94,32,20
-1.4069,0.0717,0.9013,-79.31,199.5,-37.8,21,22
-0.7925,0.0215,1.1224,-55.3,203,-20.72,10,15
-0.9028,0.6847,2.0594,50.82,58.03,-96.67,9,11
-0.7559,0.6388,1.7524,14.7,-19.18,-105.91,14,12
-0.5422,0.7252,1.2532,65.38,-91.07,-41.51,11,4
-0.9199,0.4729,1.0458,64.68,-193.55,23.73,18,12
-0.6505,0.4934,0.5876,107.1,-276.57,75.11,10,11
-0.9052,0.2733,0.7588,121.8,-292.32,138.32,10,3
-1.0106,0.0107,1.0063,124.32,-329.56,202.51,14,11
-1.9808,-0.101,0.9023,80.43,-356.51,239.47,17,11
-2.6591,-0.5588,0.1991,55.58,-285.6,191.66,16,11
-2.6547,-0.5392,-1.2503,28.56,-126.84,58.38,14,13
-1.9296,-0.5305,-1.24,73.57,41.79,61.25,12,8
-1.3205,-1.9452,-1.9017,-239.19,227.85,-132.51,6,403
2.0642,0.9101,1.4694,-215.95,26.6,-89.39,7,863
-0.1547,1.5357,1.1146,24.29,-9.38,-30.38,228,575
-0.5661,0.2723,0.8623,9.73,0.63,-12.25,476,215
-0.5236,0.1664,0.8745,7.28,13.93,-7.49,634,21
-0.3074,0.266,1.3142,17.92,88.13,-0.49,719,13
-0.1937,0.305,1.2454,-8.68,246.61,-25.27,714,15
-0.4895,0.3636,0.7588,-42.7,342.09,-65.03,449,11
-1.5011,-0.1566,0.7379,-51.31,335.44,-55.44,61,15
-1.8559,0.1069,0.9599,-50.05,245.63,-43.68,15,11
-0.8286,0.1044,1.0258,-39.62,215.32,-28.35,16,18
-1.3274,0.4148,2.096,40.46,84.56,-93.38,16,7
-0.7647,0.9628,1.9227,32.76,3.92,-131.81,18,7
-0.4475,0.7579,1.4401,42.49,-96.6,-70.84,10,7
-0.8779,0.7154,1.12,72.94,-198.31,23.59,6,13
-0.6476,0.1986,0.7471,102.06,-261.59,64.47,9,16
-0.9399,0.4128,0.7881,143.36,-325.71,115.85,9,3
-1.0536,0.3201,1.0809,118.65,-340.41,196.42,7,7
-2.1218,-0.0034,0.9775,32.41,-350.49,291.2,16,12
-2.7865,-0.3992,0.0966,64.4,-268.38,238.84,10,10
-2.8509,-0.8452,-1.5387,54.46,-141.82,57.61,12,9
-1.706,0.608,-0.6124,108.78,84,25.41,11,12
0.9521,-1.9442,1.4596,-146.72,348.04,-107.31,3,746
4.1558,-0.2357,1.7134,-33.88,69.3,-112.7,7,822
-0.3675,0.3499,1.0897,-1.47,-16.31,-31.08,267,587
-0.6193,0.1913,0.8125,2.8,8.68,-12.25,569,152
-0.1562,0.2879,1.2088,5.6,58.17,-7.98,699,16
-0.0615,0.5002,1.3264,-26.04,167.16,-16.52,751,12
-0.2738,0.285,0.9789,-23.66,297.99,-54.67,716,16
-1.1419,0.1498,0.7642,-84.49,336.56,-82.11,239,20
-1.2024,-0.0044,0.6393,-33.67,306.11,-38.5,18,14
-1.4972,0.1225,0.9087,-34.72,237.86,-25.62,17,22
-0.6895,0.2752,1.2244,-55.51,218.75,-46.48,9,13
-1.0116,0.6568,2.1145,66.57,60.97,-132.65,13,7
-0.8481,1.3518,1.7822,32.27,-83.02,-148.12,5,14
-0.3636,0.6661,1.1863,48.72,-162.4,-18.69,16,6
-0.5402,0.812,0.6651,47.39,-258.79,76.86,7,12
-0.9184,0.406,0.6466,102.76,-321.86,117.04,16,5
-1.0014,0.5144,0.7579,90.23,-324.73,157.57,6,7
-1.7285,0.5056,1.2054,111.44,-334.88,239.4,14,12
-2.5142,0.0254,0.6642,79.87,-322.21,272.86,16,9
-3.071,-0.7096,-0.4426,99.61,-220.43,152.18,13,9
-2.339,-1.5094,-1.6041,34.3,-39.06,35.42,8,7
-3.2179,-1.1814,-1.3727,-411.18,182.63,-36.68,12,59
-10.1543,1.3278,3.8615,274.75,222.39,-242.55,5,930
1.1043,-1.8876,0.9594,74.97,32.9,-27.3,92,759
-0.5124,-0.0942,0.6198,-32.69,4.9,-14.35,390,466
-0.5788,-0.0029,0.8823,-23.45,18.41,-9.66,578,99
-0.4597,0.1864,1.1229,10.78,71.4,-0.91,693,15
-0.2489,0.1742,1.3254,-21.28,206.22,-11.97,742,17
-0.5012,0.304,0.8379,-28.77,308.98,-49.49,616,12
-1.2127,-0.1586,0.611,-80.36,318.15,-52.36,120,17
-1.4425,-0.0142,0.6056,-54.18,283.01,-21.35,14,21
-1.158,0.0576,0.9643,-87.01,212.03,-1.54,10,20
-0.6398,0.1523,1.2693,-24.71,235.69,-2.73,14,14
-1.281,0.7188,2.3273,92.89,59.78,-127.19,14,7
-0.7774,0.6593,1.75,57.4,-81.13,-166.95,13,11
-0.4475,0.8667,1.1468,94.43,-161.98,-68.53,12,9
-0.6266,0.5729,0.8603,91.63,-260.75,42.56,16,13
-0.5807,0.4128,0.652,127.54,-307.86,99.54,10,8
-1.1873,0.5422,0.9355,102.76,-330.19,203.21,11,13
-1.8329,0.2796,0.9706,58.38,-345.66,282.1,13,10
-2.7387,-0.4714,0.1332,68.39,-268.73,230.72,9,8
-2.7474,-0.7017,-1.3244,38.57,-139.37,71.75,10,6
-1.8398,0.7369,-1.7695,-131.04,98.21,-34.23,13,11
0.6637,-2.3878,1.9945,-87.22,441.77,-160.72,11,869
-6.6802,0.6139,0.4704,-458.85,88.27,-17.08,24,659
-0.5222,0.9555,1.0516,-81.41,2.66,-23.17,383,372
-0.5807,0.1293,0.9218,-30.52,15.89,-14.7,604,70
-0.4734,0.1669,1.0917,-0.35,59.01,-8.82,732,18
-0.1552,0.2206,1.2493,-31.29,182.56,-17.36,797,15
-0.3538,0.4943,0.9862,-35.07,306.53,-59.36,712,16
-1.2488,0.1893,0.7832,-119.91,333.41,-81.41,161,20
-1.4635,0.0903,0.611,-45.01,298.34,-48.23,15,17
-1.32,0.1049,0.751,-62.58,171.99,-41.51,15,14
-0.3362,-0.2157,1.5504,-93.24,176.82,-57.12,4,12
-0.7042,0.7701,1.9671,47.53,75.95,-125.86,10,13
-0.7598,1.2098,1.9862,33.18,-28.84,-119.98,8,11
-0.3787,0.9653,1.4328,36.82,-126.07,-8.26,2,8
-0.7154,0.6939,1.0419,51.24,-228.06,87.71,16,13
-1.0594,0.2879,0.8067,101.15,-320.46,106.82,10,9
-0.9433,0.6715,0.6895,124.46,-343,147.84,12,9
-1.6494,0.5978,0.9687,129.08,-344.96,255.5,15,14
-2.5976,-0.1537,0.406,74.97,-304.08,304.36,12,10
-3.2872,-0.6656,-0.5646,95.06,-211.19,156.31,15,0
-2.3902,-1.0594,-1.0204,-4.2,-34.86,-9.8,12,12
-2.4859,-1.8642,-2.2887,-291.55,154.28,-45.78,11,176
-8.1662,1.7324,2.5947,45.29,91.49,-137.9,8,877
-2.1609,-0.2562,0.7418,172.69,-39.55,-42.77,192,592
-0.4119,0.3148,0.8345,-4.06,3.85,-5.6,500,220
-0.466,0.1103,0.8852,3.29,35.28,-3.99,656,17
-0.3523,0.1269,1.32,-16.59,124.39,-2.45,732,12
-0.2181,0.2308,1.0707,-28.35,259.21,-35.91,698,12
-0.6847,0.1684,0.7066,-61.18,323.12,-66.15,352,16
-1.1326,-0.1688,0.6217,-28.77,305.62,-45.92,35,16
-1.7495,-0.0342,0.8237,-47.11,246.12,-30.52,18,19
-0.9511,0.1303,0.9682,-38.22,204.75,-20.51,14,15
-1.4035,-0.1542,2.0345,29.33,133.49,-81.48,13,13
-0.8662,1.0316,2.0916,88.41,-0.07,-133.14,10,14
-0.2996,0.5871,1.2825,78.4,-118.37,-72.24,12,8
-0.6817,0.7793,0.9609,101.01,-219.94,43.05,11,16
-0.6378,0.2294,0.7027,133.35,-280.28,105.35,12,12
-0.8569,0.2694,0.8111,150.57,-311.22,153.44,14,0
-1.1112,0.0854,1.239,121.1,-320.39,210.98,16,8
-2.1653,0.1357,0.8228,69.37,-364.77,224.21,11,8
-2.8446,-0.5841,-0.183,69.58,-261.1,149.03,14,12
-2.6064,-0.9721,-1.4259,-0.49,-78.19,47.95,14,6
-1.5631,-0.0185,-1.5187,-270.9,151.62,-11.27,7,9
-7.3493,-0.2464,3.7976,169.54,396.9,-301.14,3,927
0.061,-1.3674,1.0824,-95.41,-29.47,-24.22,74,655
-0.6583,-0.3284,0.8633,-40.11,2.17,-14.14,412,340
-0.5319,0.0181,0.9477,7.35,13.3,-13.51,625,44
-0.4236,0.1454,1.1834,2.1,72.59,-2.8,742,11
-0.1698,0.1786,1.2673,-27.09,216.58,-12.39,775,16
-0.5026,0.3006,0.8511,-33.81,315.98,-47.32,629,10
-1.3083,-0.1118,0.7261,-86.03,328.58,-51.24,105,19
-1.5606,-0.2386,0.5466,-32.06,299.6,-24.36,17,17
-0.773,0.142,0.8369,-33.46,192.43,-21.28,7,16
-0.9926,-0.5241,1.5679,26.6,163.73,-61.81,9,15
-0.9453,0.5905,2.136,61.53,32.62,-119.56,11,15
-0.71,0.5734,1.7724,37.66,-82.46,-95.27,15,7
-0.792,0.8213,1.3684,74.13,-185.5,4.06,18,9
-0.7252,0.2269,0.9277,69.79,-262.5,72.17,11,16
-1.2869,0.3914,0.733,130.06,-337.05,116.69,8,12
-1.1253,0.3611,1.0365,98.98,-343.84,180.11,10,7
-1.9427,0.1039,1.1136,85.4,-368.97,261.59,10,7
-2.7299,-0.5168,0.1176,50.33,-295.05,193.97,18,4
-2.7313,-0.8999,-1.2761,61.18,-141.12,31.64,7,6
-1.4825,0.2704,-1.5533,-176.4,69.16,-61.25,7,13
0.1103,-2.0579,2.398,-53.9,393.75,-162.47,11,932
-0.7081,-0.1576,2.319,-462.07,106.82,-67.06,7,807
-0.3928,1.3415,0.894,-76.16,8.12,-21.21,303,548
-0.6163,0.0844,0.8647,-16.31,12.18,-14.07,517,159
-0.5217,0.1352,1.2288,3.43,54.18,-7.63,664,20
-0.3382,0.5392,1.3249,-53.48,165.76,-12.74,741,12
-0.4621,0.2577,0.8935,-41.23,277.48,-47.04,591,9
-1.239,-0.042,0.732,-69.44,292.81,-55.93,98,18
-1.1278,-0.0244,0.59,-31.29,274.19,-26.67,13,15
-1.3928,0.0229,0.8628,-18.97,229.04,-11.76,19,25
-0.935,0.4202,1.0429,-17.01,225.54,-35.63,9,13
-1.75,0.1269,2.419,111.58,90.51,-111.16,3,11
-0.6842,1.2771,1.7143,36.12,-46.97,-166.25,11,13
-0.4158,0.5817,1.3776,50.96,-114.94,-60.55,10,8
-0.7388,0.7554,0.9536,42.84,-247.45,61.6,9,6
-0.5724,0.2811,0.631,125.51,-331.17,105.42,13,7
-0.9296,0.5065,0.7896,138.32,-346.36,154.49,17,6
-1.8661,0.0605,1.0897,99.33,-343.98,286.37,16,9
-2.9104,-0.2098,0.3811,34.65,-282.24,291.13,12,13
-3.1808,-0.7022,-1.2971,17.43,-156.45,82.46,8,8
-2.8416,-0.1928,-1.767,-27.02,63.35,-25.62,7,8
1.6577,-2.3287,1.1995,-107.03,307.3,-94.99,7,738
6.0356,-0.1737,3.9621,-235.76,165.48,-101.43,7,787
-0.6822,1.6787,0.8813,-9.66,-23.66,-26.25,278,533
0.0468,0.0561,1.0063,50.75,13.51,-12.18,519,178
-0.4929,0.164,0.976,2.66,24.22,-9.17,672,18
-0.2884,0.3065,1.2503,-13.79,108.64,-5.6,758,12
-0.2342,0.2538,1.119,-26.6,231.14,-32.27,743,18
-0.5617,0.2503,0.693,-52.71,302.89,-64.19,561,6
-1.2307,-0.264,0.6159,-74.41,295.33,-48.58,95,21
-1.4484,-0.0298,0.6739,-52.99,262.99,-28.28,18,13
-1.0604,-0.04,0.8369,-50.96,231.28,-22.89,15,16
-1.1195,0.3694,1.5533,2.38,194.88,-36.54,15,19
-1.0204,1.0507,2.1135,78.26,7.35,-130.83,13,8
-0.5944,0.7437,1.5094,50.61,-136.29,-92.19,9,14
-0.5729,0.8101,0.9306,59.85,-227.85,36.54,8,18
-0.5617,0.3026,0.6334,92.4,-286.16,93.45,12,10
-0.7584,0.3821,0.7159,131.46,-312.2,128.94,10,5
-1.0731,0.3963,1.2312,106.54,-325.57,196.91,20,11
-2.2106,-0.183,1.0326,105.56,-350.91,272.3,17,6
-2.8768,-0.6217,-0.1484,40.11,-252.84,218.26,17,11
-2.3927,-0.8789,-1.4064,38.36,-66.08,72.31,16,14
-1.9701,-1.138,-1.3093,-374.43,169.12,-77.84,16,22
-10.5027,3.0729,2.1462,367.22,-57.68,-137.27,5,873
-2.4083,-1.6997,0.161,155.4,-9.66,-30.03,180,613
-0.6422,0.1132,0.876,6.02,-0.63,-12.6,489,246
-0.5192,0.12,0.8847,8.4,25.27,-9.31,651,11
-0.3396,0.3221,1.4215,8.68,102.41,-8.33,746,13
-0.2586,0.2694,1.0868,-23.8,232.47,-28.98,742,11
-0.6383,0.1913,0.7325,-42.14,301.28,-60.62,514,10
-1.2888,-0.2069,0.6071,-69.09,288.68,-52.85,72,14
-1.5274,-0.0961,0.7208,-44.59,261.59,-35,13,9
-1.1268,-0.021,0.9682,-35.77,221.34,-29.12,13,17
-0.8852,-0.1098,2.0481,17.5,138.81,-69.23,15,18
-0.6071,0.9316,2.0789,69.51,-25.48,-126,11,10
-0.3538,0.6427,1.2956,146.65,-154.21,-86.38,18,12
-0.4504,0.6324,0.9545,120.68,-207.34,-28.56,16,12
-0.6281,0.6783,0.8652,143.78,-262.78,106.75,13,7
-0.856,0.5114,0.9331,108.22,-284.48,222.11,14,9
-1.3952,-0.0078,1.259,86.03,-309.89,283.15,17,10
-2.2111,0.1122,0.6466,39.76,-343.35,229.53,18,16
-3.1403,-0.629,-0.57,82.25,-215.74,132.23,11,16
-3.4638,-0.4231,-1.5084,-254.1,56.56,-22.12,18,10
-1.1951,-1.4752,0.3933,-146.23,265.16,-10.64,12,475
1.6006,0.9013,1.7007,29.75,85.12,-89.04,6,687
-0.59,0.5461,0.7691,-9.87,2.31,-25.76,336,359
-0.649,0.2137,0.8667,-3.64,21.07,-13.02,579,46
-0.4636,-0.021,1.1785,29.47,70.21,-11.06,719,18
-0.2645,0.3953,1.2659,-29.61,173.67,-11.55,776,13
-0.3719,0.2118,0.9506,-25.62,291.27,-42.21,698,9
-1.2424,-0.0288,0.6861,-73.22,324.24,-54.46,179,15
-1.241,-0.1566,0.4968,-24.71,313.53,-20.16,24,22
-1.7568,0.1313,0.8667,-37.24,197.4,-9.38,20,25
-0.6305,0.1825,1.1897,-71.26,187.25,-19.39,12,11
-0.8965,0.5836,2.1794,89.88,45.99,-119.91,16,15
-0.5885,0.8472,1.8373,55.93,-114.87,-122.22,18,16
-0.9643,0.7598,1.3659,114.1,-211.4,-4.83,15,9
-0.306,0.4338,0.7213,79.31,-248.85,51.59,10,7
-0.9862,0.4021,0.8223,161.63,-301.91,115.92,12,6
-0.9623,0.0771,1.0892,111.09,-304.43,223.37,20,5
-2.0594,0.1703,1.1336,61.11,-338.94,258.79,9,6
-2.6972,-0.3904,0.0293,28.7,-298.27,167.58,24,14
-2.7967,-0.7935,-1.3039,30.8,-126.7,75.39,15,10
-2.3775,-0.4036,-1.2288,-230.65,126.35,6.79,16,11
-0.7954,-1.2137,3.1291,1.19,349.86,-97.23,16,912
-0.9501,0.1962,2.4624,-231.42,69.79,-88.41,4,768
-0.4582,0.6837,0.8916,-59.36,4.48,-29.26,364,439
-0.672,0.1606,0.8345,-8.54,12.81,-14,579,71
-0.4597,0.1,1.1317,10.36,62.44,-7.63,732,11
-0.2747,0.449,1.3859,-59.64,204.19,-14.07,783,14
-0.466,0.2664,0.8857,-48.09,294.77,-48.51,656,11
-1.3332,-0.021,0.7422,-78.89,304.08,-55.02,128,15
-1.2898,-0.0283,0.6144,-37.73,283.71,-30.03,15,18
-1.3952,0.0986,0.9018,-55.3,198.24,-20.86,15,19
-0.6661,0.1635,1.1961,-55.79,199.43,-28.98,14,13
-0.7627,0.5568,2.0369,106.89,42.21,-149.94,6,13
-0.8984,1.322,1.869,107.66,-72.59,-172.83,11,13
-0.3972,0.6588,1.3723,68.67,-134.75,-49.63,21,10
-0.63,0.8818,0.8276,45.78,-225.82,88.9,12,5
-0.9072,0.3489,0.7447,115.43,-288.68,146.58,18,12
-0.8979,0.5148,0.7984,79.03,-314.37,199.22,14,10
-1.3332,0.2045,1.1092,102.34,-320.53,239.54,11,12
-2.4288,0.1332,0.5744,78.75,-332.08,226.59,18,7
-3.0451,-0.5734,-0.6554,115.22,-180.95,130.48,16,6
-2.584,-0.9872,-1.7749,-102.97,24.29,-17.36,16,11
0.8867,-2.7626,-0.5134,-37.03,341.32,-76.79,9,691
2.5127,1.2908,1.0814,9.52,118.65,-117.53,7,755
-0.9018,1.2971,1.0526,64.4,-9.73,-31.78,335,402
-0.6544,0.2206,0.9296,0.91,7.56,-14.14,569,77
-0.4529,0.1893,1.1204,9.1,56.28,-6.51,700,13
-0.2113,0.1059,1.2566,-15.47,170.73,-9.94,759,11
-0.385,0.1952,0.913,-21.28,270.55,-40.88,672,16
-1.1517,0.1767,0.6891,-66.22,311.85,-60.41,217,15
-1.1966,-0.1308,0.6051,-30.52,296.59,-29.54,17,17
-1.6143,-0.0239,0.9145,-69.44,210.7,-13.65,22,23
-0.896,0.0527,1.0409,-64.05,210.63,-2.03,13,20
-0.5734,0.6315,2.0716,82.95,38.78,-154.28,7,14
-0.9174,1.5133,1.8964,120.47,-97.72,-178.36,15,11
-0.3401,0.8072,1.2659,67.97,-173.25,-71.33,11,9
-0.5768,0.9945,0.8379,87.85,-227.15,84.56,12,7
-0.611,0.2445,0.7369,129.64,-269.71,140.56,10,12
-0.9687,0.3958,0.9399,125.23,-299.67,172.9,7,9
-1.7095,0.7315,1.0985,103.95,-361.9,239.4,12,3
-2.6396,-0.2455,0.5314,78.12,-304.92,245.63,21,14
-2.9451,-0.4397,-0.7686,70.84,-177.17,140.77,14,15
-2.5069,-1.6441,-1.3244,99.89,4.2,53.55,8,8
-1.9515,-2.4141,-2.5625,-329.77,209.23,-74.34,12,236
-8.8123,2.3722,-2.7767,78.4,-50.47,-79.94,5,872
-1.6978,-0.4699,0.1186,163.87,-30.1,-40.18,244,564
-0.6998,-0.0346,0.812,25.48,6.93,-13.09,495,191
-0.6056,0.1347,0.978,20.93,35.98,-10.57,660,19
-0.3338,0.1259,1.259,-4.83,146.23,-16.52,758,15
-0.3299,0.2162,0.9165,-15.33,281.89,-46.2,674,10
-1.3566,0.1688,0.6915,-88.9,307.58,-67.62,174,15
-1.3,0.0298,0.5344,-46.13,281.4,-52.5,15,17
-1.2761,0.0288,0.8511,-62.86,190.33,-39.13,21,19
-0.6681,0.0503,1.4362,-53.48,198.03,-24.71,17,11
-0.9984,0.6603,2.2438,70.91,54.53,-93.59,13,11
-0.6398,1.0829,1.8939,59.92,-97.93,-96.25,11,12
-0.5797,0.7008,1.4191,91.49,-160.16,-21.07,11,15
-0.5466,0.6144,0.935,65.45,-252.14,61.11,6,7
-0.7359,0.4494,0.8472,115.64,-299.04,102.34,17,6
-1.0302,0.5817,0.9701,117.11,-338.17,176.75,15,4
-1.9818,0.4324,1.1697,91.63,-353.29,261.24,14,12
-2.4024,-0.4724,0.3992,73.01,-287.21,240.59,16,9
-2.7587,-0.3987,-0.6622,26.46,-161.63,77.42,13,12
-1.5333,-0.1703,-0.6417,100.38,6.72,34.72,14,9
-2.3175,-3.0695,-2.7104,-147.35,307.65,-134.05,12,581
-1.1351,1.7158,1.2898,-88.76,149.94,-86.8,4,952
-0.1893,0.712,1.0565,32.9,6.58,-52.22,256,653
-0.6539,0.2084,0.8389,-20.44,6.3,-18.83,507,266
-0.5666,0.2635,1.079,2.73,43.68,-6.93,672,16
-0.3216,0.3465,1.4079,-55.16,202.72,-13.37,759,16
-0.4412,0.1479,1.1092,-37.45,301.21,-42.21,619,10
-1.3264,-0.0483,0.8281,-71.89,325.85,-49.91,83,20
-1.8495,0.1576,0.6783,-32.76,254.66,-40.67,14,14
-0.671,-0.0088,0.8847,-74.62,192.43,-24.99,11,16
-0.978,-0.2513,1.8559,51.52,120.68,-94.57,11,19
-0.4416,0.5309,1.9374,57.26,-2.24,-140.28,16,15
-0.4895,1.1483,1.6065,64.54,-104.37,-74.48,11,12
-0.835,0.5871,1.3747,93.03,-150.57,15.54,15,11
-0.7798,0.386,0.9409,74.62,-232.61,45.78,11,7
-1.0131,0.4392,0.8574,119,-301.14,94.15,12,5
-1.1131,0.3953,0.954,124.88,-321.44,169.26,13,6
-1.8222,-0.2899,0.7891,74.97,-319.2,284.13,18,8
-2.7962,-0.6559,0.062,73.92,-232.05,222.39,16,13
-2.3648,-0.9765,-1.218,4.9,-110.95,23.1,15,13
-2.8372,-0.8838,-0.6334,-308.84,104.09,4.9,12,32
-6.8154,-0.3299,5.0445,175.49,298.97,-174.23,14,965
-1.0677,-1.241,1.1561,-435.05,58.31,-55.93,14,776
-0.6471,-0.4929,0.9877,-75.32,-1.33,-23.38,395,485
-0.548,0.0029,0.9555,-6.51,19.25,-13.86,647,89
-0.3182,0.2586,1.2532,4.27,102.34,-7.77,769,15
-0.2342,0.2025,1.2176,-26.32,238.49,-24.01,791,18
-0.6373,0.1728,0.8467,-63.56,320.6,-66.64,576,7
-1.3361,-0.4202,0.5427,-85.33,305.83,-59.99,86,20
-1.9378,-0.0805,0.7178,-49.77,240.03,-41.58,15,13
-0.8257,-0.1693,0.8647,-67.69,192.08,-25.27,21,24
-1.1209,-0.5695,1.5499,59.5,146.09,-80.57,10,15
-0.7608,0.7115,1.9208,45.22,31.78,-138.53,7,12
-0.6617,0.6964,1.6577,35.98,-86.45,-124.39,11,11
-0.7691,0.9989,1.1649,119.7,-185.92,-18.41,16,14
-0.4734,0.3992,0.3157,125.65,-287.21,83.3,8,9
-0.9365,0.3494,0.8638,172.41,-280.7,152.39,11,12
-0.7252,0.1337,1.1322,145.46,-304.15,209.23,10,7
-1.7841,0.2235,1.2839,138.46,-335.23,302.68,16,11
-2.6152,-0.5461,0.2523,41.86,-285.18,241.64,16,8
-3.2872,-0.7735,-1.4172,46.83,-123.48,120.68,16,9
-2.6464,-1.2078,-1.1434,-231.63,104.09,8.4,16,7
-5.1382,0.6925,3.1071,169.54,386.4,-308.49,6,918
-0.7867,-1.8241,0.1118,-135.94,-0.7,-27.51,121,669
-0.7867,-0.6212,0.629,-31.85,4.34,-15.19,447,359
-0.6261,0.061,0.9209,-2.17,13.23,-8.96,629,50
-0.4939,0.0132,1.0956,0.14,63.77,-6.37,735,17
-0.1801,0.0073,1.2942,-2.1,196.35,-25.62,773,15
-0.5817,0.4148,0.9223,-33.6,277.13,-51.24,651,7
-1.2576,0.0176,0.7593,-78.12,297.5,-62.02,119,19
-1.3708,0.0459,0.6495,-37.1,276.99,-39.9,15,20
-1.3078,0.0932,0.9516,-51.24,202.65,-32.83,18,17
-0.8218,-0.081,1.6934,-74.13,181.02,-44.66,7,13
-0.8833,0.6573,2.3068,74.06,48.72,-132.3,15,15
-0.4817,0.7135,1.7797,47.04,-104.51,-133.42,11,17
-0.6388,0.9028,1.2986,80.5,-175.56,-8.54,12,9
-0.6393,0.3802,0.8804,75.88,-239.54,87.64,12,6
-0.9306,0.3997,0.8496,132.23,-327.81,125.44,7,7
-0.8808,0.3245,0.9355,125.23,-331.94,170.73,11,12
-2.1448,0.1757,1.1429,130.34,-343.28,243.74,12,8
-2.5025,-0.6471,-0.0268,69.44,-269.64,220.22,18,7
-2.7762,-0.589,-1.2727,59.29,-132.72,101.71,14,10
-1.8686,-0.0151,-1.5909,-240.87,101.08,-32.97,11,13
0.3689,-0.6364,2.7611,-3.15,396.69,-152.88,9,926
-5.5754,0.4031,1.1346,-383.74,67.62,-44.24,15,758
-0.6637,0.3826,0.8735,-50.4,-0.77,-1.68,377,521
-0.629,0.0834,0.7188,-8.05,10.5,-18.69,587,152
-0.6466,0.609,1.0302,-12.88,48.51,-10.22,722,23
-0.2669,0.2538,1.3444,-29.96,146.09,-10.85,787,15
-0.2913,0.2806,0.9492,-26.46,270.83,-41.3,736,15
-0.9618,0.0098,0.6451,-68.11,310.66,-65.1,287,13
-1.4347,-0.0849,0.6564,-30.1,277.69,-35.35,28,24
-1.1053,-0.02,0.9984,-83.3,198.87,-18.69,15,21
-0.9365,-0.2264,1.6568,-32.34,197.47,-23.45,13,15
-0.8272,0.8169,2.174,73.22,48.44,-147.7,13,13
-0.5461,0.9028,1.7485,57.61,-83.86,-143.99,7,9
-0.5363,0.9008,1.3044,66.92,-159.25,-31.43,17,11
-0.5139,0.5944,0.9038,75.39,-235.06,75.11,13,10
-0.8579,0.3616,0.835,141.47,-304.57,125.86,8,11
-1.0365,0.2801,1.0814,139.72,-325.43,195.16,10,12
-2.0452,-0.0137,1.0951,143.71,-334.95,252.77,13,11
-2.4156,-0.8672,-0.1015,70,-261.38,205.38,16,12
-3.0017,-0.8877,-1.1527,42.14,-100.8,80.64,19,10
-1.9491,-0.5783,-1.1556,-309.4,111.3,-20.3,18,18
-1.7309,-0.3572,3.2476,32.48,411.95,-181.86,12,967
-3.3496,-0.8603,1.4089,-340.55,42.21,-42.35,20,817
-0.8545,0.0273,0.8682,-57.4,2.1,-17.43,327,583
-0.6237,0.2064,0.8599,-19.67,13.58,-13.72,547,171
-0.5456,0.3172,1.5523,32.69,53.34,-5.25,667,18
-0.3177,0.3357,1.3425,-38.64,173.11,-16.31,742,12
-0.3631,0.2689,0.9252,-23.73,275.38,-48.58,680,16
-1.24,0.1825,0.669,-68.88,310.87,-63.21,211,17
-1.2195,-0.0132,0.6183,-47.11,292.67,-40.81,25,24
-1.5728,-0.0464,0.9819,-58.31,229.18,-25.34,16,27
-0.9067,0.1025,1.178,-13.3,224.63,-17.08,14,19
-1.0775,0.835,2.4161,77.98,48.86,-102.62,9,12
-0.5675,0.3577,1.87,80.99,-98.77,-125.02,14,18
-0.3592,0.8769,1.3059,65.73,-162.26,-48.72,18,14
-0.4055,0.4626,0.8745,87.15,-262.15,64.68,16,16
-0.8745,0.3982,0.8623,118.3,-306.04,114.73,9,10
-0.9931,0.286,0.9638,96.81,-321.86,195.51,7,10
-2.0057,0.3821,1.0702,74.48,-346.85,250.25,11,8
-2.5396,-0.6227,0.101,86.03,-272.93,179.55,10,7
-2.8607,-0.5739,-1.2,60.13,-140.91,67.48,9,16
-3.1808,-0.9618,-1.364,-274.96,95.34,-29.89,16,11
-2.3287,-0.8516,3.6376,72.03,382.9,-108.99,7,935
-2.1638,-1.2039,0.7178,-456.05,30.03,-18.83,17,738
-0.6871,-0.042,0.9658,-94.43,7.98,-21,396,440
-0.5529,-0.0073,1.0014,-7.14,14.56,-16.17,586,90
-0.4431,0.1015,1.1409,8.47,62.58,-6.93,711,14
-0.2191,0.3431,1.2566,-19.18,177.87,-15.96,781,10
-0.3616,0.3924,0.9087,-36.75,274.19,-49.63,684,12
-1.2561,0.1752,0.7344,-104.79,302.54,-68.67,160,17
-1.382,0.059,0.7081,-34.79,281.82,-42.49,20,14
-0.9941,0.0459,0.9091,-78.19,210.7,-35.84,17,18
-0.9472,-0.8364,1.8632,37.1,138.11,-58.38,16,9
-0.304,0.55,2.0086,21.91,6.51,-142.73,3,15
-0.408,0.8247,1.6153,26.88,-96.6,-128.1,12,18
-0.5222,1.038,1.1824,102.06,-217.56,-5.25,10,17
-0.875,0.6281,0.9765,95.13,-262.5,85.75,10,9
-0.9018,0.468,0.8882,118.16,-295.47,138.32,16,8
-1.1966,0.1952,1.1126,119.84,-313.53,192.71,12,12
-1.8793,0.2362,0.9414,90.37,-343.07,236.95,10,9
-2.6601,-0.5202,0.0976,86.03,-264.74,192.01,13,16
-2.5747,-0.5051,-0.8467,72.66,-80.64,67.55,19,3
-2.767,-1.7978,-2.0598,-140.63,118.72,19.11,10,43
-4.5228,-0.5666,3.5766,62.79,293.02,-215.39,11,881
-1.3879,-1.2459,0.996,-438.76,61.32,-28.91,46,672
-0.5422,-0.1166,0.9511,-88.13,9.03,-22.82,434,338
-0.5568,0.12,0.9765,-9.31,24.57,-11.41,632,34
-0.4426,0.7139,1.281,-11.48,88.83,-7.49,759,14
-0.3719,0.0893,1.2361,-19.95,219.31,-24.64,799,11
-0.6056,0.2469,0.7974,-62.02,304.99,-62.37,566,12
-1.3147,-0.2152,0.651,-68.88,301,-57.26,66,11
-1.7085,0.0137,0.6486,-52.22,231.77,-51.87,13,14
-0.815,-0.0634,0.9316,-89.74,191.94,-37.8,14,21
-0.9379,-0.6037,1.708,11.9,146.79,-73.92,15,19
-0.751,0.8374,1.9852,16.94,29.82,-124.18,15,11
-0.4563,0.5573,1.6572,66.08,-74.97,-79.94,15,14
-0.8408,0.5895,1.3698,73.57,-173.74,12.11,14,9
-0.6315,0.4802,0.9833,106.05,-256.9,69.09,11,7
-1.1566,0.3094,0.9906,158.41,-343.63,137.41,12,12
-1.1405,0.6154,1.0028,87.85,-319.69,184.17,9,10
-1.7495,0.0454,1.2478,110.53,-319.76,256.76,9,9
-2.3619,-0.4397,0.3787,55.65,-293.86,172.48,15,7
-2.7367,-0.7281,-0.9892,71.61,-158.27,31.92,11,7
-2.0174,0.4246,-1.9837,-110.39,79.73,-18.9,14,9
0.1,-2.4434,1.6036,46.27,359.03,-9.73,11,751
-2.6528,1.1775,0.4387,76.86,85.82,-89.95,10,907
-0.6056,0.8306,0.8545,15.12,-3.85,-27.72,248,662
-0.6139,0.1649,0.8457,-23.31,7.35,-17.71,522,308
-0.4641,0.0517,1.1004,7.21,53.34,-6.72,688,17
-0.2118,0.2645,1.3918,-32.69,173.6,-15.96,759,15
-0.4011,0.2474,0.914,-21.56,288.54,-48.16,683,13
-1.3849,0.1986,0.7232,-71.12,301.49,-67.41,161,16
-1.4518,0.1801,0.549,-35.91,265.86,-51.24,23,25
-1.079,0.0478,0.7706,-86.31,180.67,-40.11,26,20
-0.7969,-0.1464,1.4254,-67.48,161.84,-26.6,13,19
-0.7013,0.6393,2.0994,25.55,60.13,-121.73,13,16
-0.5758,0.5646,1.9569,30.17,-39.9,-99.54,10,13
-0.9335,0.6046,1.3727,80.78,-157.15,4.76,14,18
-0.6998,0.3919,1.0751,74.9,-221.69,68.46,16,8
-0.6525,0.4324,0.8252,127.05,-289.31,94.15,15,9
-1.0687,0.4436,1.0116,137.2,-311.22,152.25,12,6
-1.71,0.6368,1.1614,112.91,-358.4,229.81,12,16
-2.338,-0.2015,0.4099,90.3,-297.71,238.28,12,14
-2.2921,-1.8451,-1.5933,129.29,-31.01,42.35,11,7
-2.4107,-2.4249,-3.1979,-294.63,208.46,-63.91,5,336
-4.9146,1.686,0.5763,-41.09,-6.93,-39.06,8,894
-1.7993,-0.7535,0.9043,166.74,1.26,-47.18,177,653
-0.4377,0.0449,0.9531,-5.74,3.85,-16.87,487,285
-0.4734,0.1078,0.8447,10.78,25.97,-8.89,643,15
-0.364,0.1513,1.282,-4.2,110.88,-7.42,744,10
-0.2557,0.184,1.1039,-22.82,234.78,-25.34,736,16
-0.6817,0.1069,0.7315,-53.55,302.05,-50.68,425,11
-1.2034,-0.0932,0.6227,-59.5,286.93,-44.73,33,17
-1.7739,-0.0264,0.8623,-37.94,237.37,-33.67,16,16
-0.9296,0.1391,1.018,-73.43,210.84,-37.1,19,25
-1.179,-0.2006,2.2599,57.19,113.96,-90.37,18,13
-0.2157,0.8916,1.9759,49.49,-43.96,-132.86,11,10
-0.2933,0.9174,1.5577,81.34,-108.99,-43.89,12,11
-0.5714,0.4631,1.261,77.77,-192.64,54.88,7,12
-0.7379,0.3606,1.0331,108.43,-281.26,82.53,8,10
-1.1453,0.2582,0.9701,133.21,-321.65,117.04,6,10
-1.6402,0.3943,1.1058,120.33,-344.61,213.01,12,12
-2.1296,-0.222,0.548,91.98,-313.39,255.71,11,7
-2.9641,-0.6407,-0.3762,81.76,-230.44,162.26,16,11
-2.4542,-1.8334,-1.7446,52.15,-51.03,48.09,15,5
-3.3779,-1.8578,-2.033,-352.17,192.85,-96.46,10,252
-10.2753,2.1511,2.0257,93.38,-29.4,-132.16,0,967
-0.3933,-0.7725,0.7925,104.86,24.5,-18.13,115,800
-0.7071,-0.0044,0.8789,9.17,-1.26,-11.41,403,545
-0.5827,0.0151,0.8818,-3.36,18.76,-8.19,572,151
-0.4241,0.0386,1.097,5.67,75.11,-6.23,682,16
-0.3138,0.0146,1.16,-44.59,191.17,-19.53,699,11
-0.5993,0.1493,0.8111,-38.85,261.66,-36.68,536,10
-1.14,0.0102,0.7662,-49.7,276.29,-35.91,95,22
-1.423,-0.0605,0.6486,-54.88,199.92,-32.76,14,19
-0.8833,-0.0644,1.0399,-86.8,194.25,-15.19,22,22
-0.5602,-0.0996,2.3351,40.88,153.44,-31.92,11,16
-0.5407,1.4069,2.5234,42.91,-44.59,-128.73,14,11
0.2786,0.9199,1.6626,92.33,-99.54,-126,14,10
-0.264,0.7867,1.3893,60.55,-163.52,-0.56,10,14
-0.6076,0.6378,1.1639,87.5,-240.1,81.48,11,14
-0.9643,0.3714,1.1517,127.33,-312.48,131.25,7,12
-1.2044,0.4236,1.1795,142.03,-341.6,179.55,12,12
-1.9491,-0.1752,0.8057,115.71,-314.93,259.91,7,10
-3.1232,-0.4856,0.1181,104.02,-228.9,197.68,7,8
-2.8636,-1.1039,-1.4328,59.36,-72.8,41.16,12,15
-2.9007,0.6798,-2.2482,-95.62,122.57,-44.66,6,10
0.9579,-1.9427,2.1501,-45.22,332.78,-128.38,7,866
-0.9233,0.9658,1.2644,-107.8,49.42,-90.16,4,942
-0.3909,1.1727,0.7964,85.33,-17.15,-31.22,219,704
-0.6129,0.2567,0.8589,-3.29,2.38,-13.51,454,402
-0.5095,0.266,0.9853,-1.68,19.95,-9.52,598,66
-0.6886,-0.0805,1.0277,44.38,80.29,-13.93,697,11
-0.304,0.3221,1.0048,-22.96,205.38,-31.08,704,13
-0.6466,0.1327,0.7627,-45.85,261.87,-46.69,457,13
-1.222,-0.082,0.6725,-43.4,269.15,-43.47,70,22
-1.3596,0.059,0.7344,-40.53,230.51,-36.12,14,16
-0.9692,0.0586,1.0009,-80.57,226.66,-40.18,25,17
-1.14,-0.0127,2.3346,-4.76,201.04,-44.17,13,15
-0.6598,1.1419,2.3731,14.14,-1.12,-150.29,16,15
-0.5231,0.8213,1.7407,99.75,-86.73,-96.67,15,11
-0.5158,0.4856,1.1785,46.06,-207.34,65.24,14,16
-0.754,0.2001,1.0355,137.69,-289.66,122.99,17,13
-0.8267,0.3484,0.8896,160.09,-352.8,123.9,11,10
-1.4181,0.2835,1.2644,120.33,-346.85,187.18,5,11
-2.5576,0.0244,0.7554,89.46,-355.53,236.74,10,7
-2.9417,-0.9467,-0.4241,101.64,-217.07,161.63,17,13
-2.4327,-1.6768,-1.9296,28.84,-35.21,35.49,17,18
-1.8759,0.6832,-0.3221,46.69,197.19,-12.32,11,9
0.3943,-0.954,2.6957,-95.83,490.98,-229.95,11,1047
-5.1255,-1.5011,-1.0975,-146.16,77.7,1.4,12,849
-0.8242,0.204,0.8174,-54.6,-0.63,-10.22,271,653
-0.6456,0.2538,0.7666,-14.63,0.28,-20.09,479,286
-0.5022,0.225,1.0033,-1.68,30.24,-12.88,636,20
-0.2967,0.3689,1.3278,5.39,116.97,-6.86,731,14
-0.2445,0.2137,1.1336,-23.24,246.26,-37.03,726,17
-0.6822,0.1342,0.67,-55.3,314.23,-59.64,371,19
-1.2342,-0.1889,0.6983,-44.59,305.69,-48.23,35,17
-1.5118,0.1513,1.1551,-82.39,224.21,-47.6,19,30
-0.8599,-0.0337,1.4196,-51.17,227.01,-27.44,11,19
-0.7549,0.7642,2.2389,68.88,84.77,-139.16,11,12
-0.5836,0.7344,1.8266,45.36,-46.41,-138.25,17,14
-0.6378,0.8145,1.3532,64.26,-133.07,-13.51,13,9
-0.488,0.5514,0.9043,98.28,-260.05,94.92,10,9
-0.8174,0.2894,0.8462,135.52,-306.6,114.8,9,9
-0.9301,0.2708,1.0136,144.13,-325.64,163.52,10,15
-1.9427,0.0093,1.2093,132.3,-360.08,251.37,14,16
-2.8309,-0.4124,0.2567,71.12,-295.05,236.25,17,12
-3.3745,-0.5544,-1.2483,52.99,-146.58,91.35,14,11
-2.1428,0.0063,-1.6904,-57.4,88.97,-18.83,14,6
1.6587,-2.3234,1.1985,-120.68,312.34,-70.7,11,681
6.4406,0.2591,3.234,-114.8,215.32,-112,7,808
-0.4953,0.6627,1.017,-4.69,0.21,-28.07,292,547
-0.9492,-0.083,0.7749,-2.59,-1.82,-14.07,551,188
-0.5178,0.1503,1.0009,1.47,33.53,-8.12,696,22
-0.3421,0.3099,1.261,-7.14,114.17,-6.09,756,16
-0.2767,0.2777,1.0536,-19.53,229.95,-27.37,720,11
-0.59,0.2435,0.7315,-62.3,297.29,-57.33,346,20
-1.4581,-0.1347,0.7974,-23.38,282.31,-38.92,23,13
-1.2952,0.1313,1.1854,-89.11,199.71,-35.63,22,18
-0.7618,-0.4231,1.9803,-53.13,188.02,-33.74,16,11
-0.4929,0.8389,2.299,75.32,40.32,-165.2,17,13
-0.4216,1.1771,1.8695,59.08,-79.8,-136.08,11,10
-0.2225,0.7696,1.259,57.82,-113.82,11.83,17,11
-0.7247,0.5431,1.0497,64.82,-206.36,94.5,15,10
-0.9819,0.2416,0.9677,123.41,-298.83,99.4,11,9
-0.9101,0.3231,0.8886,138.18,-332.92,136.92,15,4
-1.8524,0.3343,0.9745,112.91,-346.85,235.2,12,7
-2.7025,-0.488,0.2552,96.18,-278.53,245.35,14,8
-3.355,-0.6212,-1.0526,62.23,-137.13,94.08,7,14
-2.3282,-1.3967,-1.7387,-205.24,95.41,-20.93,11,0
0.1283,-0.1981,2.133,8.61,308.91,-77.14,16,849
-0.4485,-0.4768,1.9701,-168.77,81.06,-80.36,10,757
-0.5719,0.2401,0.8013,-33.11,1.96,-20.79,265,530
-0.6271,0.0996,0.8628,-5.11,14.28,-11.55,494,150
-0.5187,0.2098,1.0038,8.82,47.74,-5.53,631,20
-0.2274,0.3675,1.2795,-30.1,155.54,-7.7,712,11
-0.3538,0.2342,0.9374,-30.45,253.33,-37.45,631,7
-1.1224,0.1776,0.7525,-56.07,300.16,-60.76,178,16
-1.6514,-0.0107,0.7515,-38.92,257.32,-49.35,22,19
-1.0355,-0.04,0.9682,-98.84,196.77,-40.25,20,14
-0.6647,-0.3021,1.9647,-70.14,178.85,-40.46,15,15
-0.6427,0.8101,2.3712,53.83,54.67,-139.86,11,7
-0.324,0.8296,1.8032,56.91,-94.43,-99.05,17,14
-0.6808,0.7188,1.3859,82.11,-142.52,12.25,15,15
-0.487,0.5236,0.8945,96.74,-249.76,83.51,11,8
-1.3591,0.631,1.12,127.26,-295.89,100.87,14,3
-1.0526,0.3128,1.0716,130.97,-322.91,173.6,12,8
-2.1335,0.0522,0.9828,105.98,-337.4,255.78,11,8
-2.604,-0.8916,0.123,99.75,-250.88,213.78,14,12
-2.97,-0.5212,-1.2912,31.85,-131.88,27.51,11,9
-2.6157,-0.8813,-1.1878,-299.6,85.4,-67.13,6,8
0.4909,-0.5549,2.623,-2.66,366.52,-121.03,12,920
-2.9021,-0.4104,1.9232,-305.62,73.85,-67.41,0,788
-0.917,0.1688,0.9013,-78.4,-1.47,-19.95,286,504
-0.5851,0.3172,0.8882,-24.43,10.01,-10.29,504,192
-0.51,0.0303,0.957,11.41,46.27,-3.15,628,17
-0.3328,0.1991,1.2634,-5.11,134.68,-5.81,703,14
-0.3997,0.3021,0.9321,-27.09,237.44,-35.91,640,17
-1.0009,0.1596,0.7125,-53.83,279.37,-53.2,215,15
-1.401,0.0893,0.8106,-51.1,262.64,-51.38,24,20
-1.4464,0.0312,1.1478,-78.89,203.77,-48.79,15,19
-1.0838,-0.1357,2.0067,-48.02,191.17,-42.91,15,21
-0.6461,0.7984,2.3902,87.36,47.11,-139.09,7,19
-0.2157,0.6578,1.707,85.54,-60.69,-70.49,16,11
-0.3314,0.5353,1.3059,96.81,-137.34,38.22,15,12
-0.6695,-0.0088,1.0946,154,-252.35,60.06,12,11
-0.8926,-0.1815,1.0219,209.79,-315.35,67.2,13,16
-1.0663,0.0761,1.2088,180.11,-331.8,153.16,15,9
-1.9071,-0.5222,0.9296,137.55,-359.94,233.8,18,7
-2.7694,-1.1307,0.304,103.25,-263.41,148.82,14,13
-2.6459,-0.7505,-1.0487,13.02,-115.5,12.11,16,11
-3.3028,-1.4821,-1.0697,-353.22,89.53,-8.33,11,26
-2.5952,0.0761,2.7567,182.28,326.76,-188.23,8,923
-1.2254,-1.5372,1.4186,-312.27,39.83,-48.37,13,843
-0.7149,-0.2621,0.833,-59.22,7.77,-19.88,324,577
-0.6061,0.1088,0.8555,-10.99,17.15,-11.34,520,222
-0.507,0.1381,1.0233,7.21,51.59,-4.62,652,21
-0.2616,0.2752,1.2908,-26.39,154.63,-7.56,700,15
-0.4846,0.2308,0.9267,-49.28,244.02,-38.57,622,7
-0.9877,0.3636,1.0365,-42.42,273.42,-50.12,222,13
-1.3137,0.1557,0.7291,-33.32,251.65,-49.7,26,19
-1.3322,0.1366,1.0263,-60.83,192.08,-51.59,24,16
-0.9013,-0.1679,1.5655,-1.89,194.39,-38.64,20,17
-0.9633,0.8057,2.32,78.4,83.79,-121.38,13,17
-0.2625,0.3899,1.6714,90.86,-1.05,-64.47,20,10
-0.5724,0.4558,1.4596,108.92,-97.58,38.85,12,9
-0.4377,-0.1444,0.9511,159.18,-220.29,49.07,8,18
-0.6988,-0.1196,0.955,196.49,-299.81,62.02,14,15
-0.7349,-0.0244,1.0951,173.25,-327.95,146.58,18,9
-1.7466,-0.405,1.0019,130.27,-370.86,200.83,16,9
-2.7499,-0.9355,0.223,91.63,-293.16,123.41,15,8
-2.42,-0.6754,-1.178,4.41,-104.02,19.32,15,3
-1.666,-0.3021,-0.894,44.73,52.08,14,16,10
1.321,-2.1091,0.4548,-276.43,235.27,-130.41,12,729
5.0376,-0.7013,3.0285,-196.98,116.06,-66.29,8,896
0.0293,0.3899,1.0443,-6.86,-13.79,-25.48,132,747
-0.6188,0.3597,0.8403,-16.31,4.27,-9.94,354,485
-0.5095,0.0615,1.0326,1.19,24.22,-6.51,511,130
-0.3987,0.0834,1.1829,9.1,86.8,6.3,607,16
-0.2889,0.3372,1.1639,-17.85,220.29,-22.75,603,13
-0.5705,0.1615,0.8306,-41.44,290.29,-42.49,354,11
-1.1858,-0.0351,0.7325,-21.63,278.74,-20.58,52,13
-1.3166,0.1362,0.6686,-53.69,245.42,-21.49,19,17
-0.8735,-0.0176,0.815,-67.62,234.92,-15.61,19,15
-1.1732,-0.8799,1.5982,22.75,234.92,-38.5,17,15
-1.6655,0.7003,2.1501,205.38,41.23,-254.03,15,9
-0.3558,1.0653,1.3854,137.69,-51.52,-180.18,8,11
-0.6227,0.7584,1.2712,100.45,-116.48,51.1,6,12
-0.8057,0.0483,1.1507,143.71,-258.65,143.43,7,15
-0.5144,-0.1313,0.875,220.08,-364.98,142.45,18,10
-0.9496,-0.0844,1.3,136.36,-362.04,141.33,14,12
-1.7592,-0.0312,1.0233,133.28,-402.36,191.1,16,7
-2.9036,-0.6466,0,64.75,-292.74,160.72,11,6
-3.2637,-0.8052,-1.1575,39.83,-98.28,121.17,12,6
-1.6255,-0.548,-1.6382,-192.64,128.87,-40.46,16,12
-0.4211,0.3684,2.4498,123.76,398.58,-211.19,9,967
-2.5352,-1.2503,-1.0853,-264.88,7.14,-3.64,25,792
-0.5963,-0.3797,0.7574,-54.32,2.52,-16.8,312,517
-0.6368,-0.0068,0.8711,-3.71,4.41,-10.99,532,158
-0.6071,0.4958,1.0975,-21.49,56.49,-9.17,680,18
-0.3001,0.2547,1.3479,-53.13,165.9,-15.26,740,16
-0.3128,0.2611,0.9345,-24.08,265.51,-49.07,695,15
-1.0863,0.1503,0.6598,-64.12,301.77,-64.19,262,16
-1.1219,-0.1893,0.6407,-30.38,285.67,-20.09,31,25
-1.3976,0.0966,1.015,-123.97,216.58,-14.91,18,20
-0.8926,-0.2074,1.0209,-75.67,244.23,22.26,20,15
-1.4528,0.6139,2.4034,115.08,60.48,-133.35,17,15
-0.6866,0.5651,1.7139,37.52,-53.76,-224.63,13,12
-0.9174,1.1214,1.4557,73.85,-164.43,-136.92,15,15
-0.833,0.8013,0.8218,75.95,-297.29,20.72,7,11
-0.6598,0.7359,0.5954,128.94,-319.13,136.99,16,12
-0.9135,0.7842,0.7383,108.64,-332.08,204.05,9,7
-1.6529,0.5095,1.2005,111.65,-353.29,279.58,8,8
-2.523,0.3221,0.4763,47.18,-300.58,256.41,21,5
-2.9368,-0.7149,-0.8564,106.26,-164.08,185.43,16,9
-2.9997,-1.0594,-1.1219,117.88,19.88,96.6,17,0
-2.4054,-2.2765,-2.4781,-174.3,239.33,-63.56,7,271
-3.09,0.5017,-1.7319,-148.26,-125.86,-38.29,6,781
-0.2054,-0.3592,0.8603,127.4,-16.17,-43.33,303,470
-0.3221,0.1074,1.0785,-5.74,7.98,-14.56,599,123
-0.5539,0.2133,0.9355,11.48,26.67,-10.36,732,14
-0.3509,0.1074,1.2747,-10.15,120.61,-15.05,837,15
-0.2655,0.2318,1.1566,-10.22,237.86,-39.13,818,12
-0.7315,0.2172,0.7491,-81.27,308.7,-73.5,472,19
-1.2254,-0.2835,0.6334,-22.33,285.88,-36.68,30,17
-1.6094,-0.0405,0.7354,-66.36,188.09,-8.54,13,22
-0.7203,-0.1474,0.7979,-105.98,190.4,-1.19,16,19
-1.4425,0.0815,1.8637,28.7,93.94,-134.54,14,16
-0.8555,1.1771,1.8007,-61.81,0.28,-197.12,14,11
-0.9292,0.6598,1.6631,19.32,-74.55,-131.46,14,17
-0.9023,1.4181,1.1868,11.27,-189,3.71,16,9
-0.6759,0.4616,0.8257,82.46,-251.23,102.76,17,7
-0.6705,0.5139,0.6227,89.6,-307.16,137.69,17,9
-1.2546,0.5729,0.8096,115.01,-318.64,178.85,20,7
-1.6729,0.4124,0.8589,78.33,-319.34,276.36,9,7
-2.3575,0.0605,0.2967,57.12,-265.16,287.35,7,3
-3.1359,-0.2664,-0.1576,96.04,-168.21,199.85,4,11
-2.421,-0.103,-0.7808,74.69,-39.55,27.51,15,12
-3.4521,-1.2503,-0.0151,-279.72,85.12,11.9,14,16
-1.2395,0.304,1.9281,48.37,243.81,-13.37,7,588
-0.1674,-0.0991,-0.7081,-27.79,53.13,-105.77,11,800
-0.8218,-0.3558,0.7442,-59.78,32.97,-36.47,93,638
-0.6564,0.1435,0.8481,-9.52,4.34,-15.47,360,335
-0.61,0.1064,0.9931,-3.01,30.17,-12.67,574,25
-0.4992,0.1381,1.0424,7.91,72.38,-8.54,700,13
-0.4187,0.1645,1.119,-33.95,161,-16.87,739,21
-0.5295,0.3353,0.8813,-31.22,225.26,-35.14,624,11
-0.8672,0.1137,0.6842,-37.38,257.88,-54.53,203,25
-1.157,-0.061,0.7076,-11.55,247.03,-47.67,27,15
-1.3947,0.2186,0.9565,-39.13,210.91,-56.91,12,19
-0.8525,0.0493,1.0233,-47.32,222.95,-62.58,18,20
-1.1073,0.6251,2.0657,78.4,103.6,-146.16,16,18
-0.2791,0.7535,1.5313,-37.17,-55.02,-146.86,6,7
-0.5924,0.8047,0.9848,1.4,-147.35,13.02,7,14
-0.7369,0.2577,0.6915,39.76,-226.8,68.74,10,12
-0.8101,0.3138,0.6856,76.72,-299.95,91.28,15,9
-0.9628,0.8447,0.6744,66.29,-314.58,160.44,7,8
-1.3357,0.2972,1.0268,63.7,-291.62,273.42,4,7
-2.3341,0.2211,0.6295,22.54,-295.19,290.43,16,12
-2.6181,-0.06,-0.2181,31.5,-166.25,236.53,16,18
-2.1638,-0.3157,-1.4777,28,0,130.27,14,3
-2.0501,-1.1136,-1.8022,-124.11,162.4,-13.72,12,62
-5.0825,1.7387,2.2765,174.16,299.18,-270.76,7,878
0.5231,-1.3435,0.0815,-278.11,44.38,-67.69,92,601
-0.8452,-0.2357,0.6822,-66.5,11.2,-26.81,489,233
-0.6354,-0.0503,0.8564,-13.93,5.53,-15.19,704,24
-0.5514,0.1069,0.9945,1.54,36.19,-11.48,785,11
-0.4597,0.1049,1.0941,-16.73,102.55,-7.49,843,15
-0.4919,0.0888,0.9238,-22.12,163.52,-15.68,769,16
-0.5836,0.0781,0.7393,-28.49,204.12,-34.93,495,13
-1.22,-0.2918,0.795,-61.6,193.06,-0.28,91,16
-1.0326,0.0171,0.934,-151.34,174.09,15.61,29,15
-0.6686,-0.1903,0.7666,-199.99,197.68,52.71,9,15
-0.9238,-0.7013,1.4074,-29.33,206.57,59.92,12,20
-0.8794,0.4699,1.7954,-14.98,59.71,-179.83,20,16
-1.0024,0.8486,1.3967,-63.49,-125.23,-215.74,9,14
-0.3816,0.9496,0.7222,-79.8,-198.66,-97.93,15,12
-0.9218,1.2444,0.5158,-55.02,-247.38,53.34,15,0
-0.8135,0.7198,0.489,-65.38,-275.73,136.5,12,7
-1.4401,0.9467,0.5412,-73.78,-282.1,219.8,12,8
-1.6524,1.5884,0.1293,-122.71,-228.13,360.22,14,7
-2.3873,1.2859,-0.4656,-205.1,-59.5,488.04,14,11
-1.9896,0.6622,-1.2873,-133.7,167.3,475.44,13,10
-1.7451,-0.1913,-1.3215,-65.66,199.85,253.33,8,8
-0.0839,1.954,-0.1562,-109.48,-50.33,-57.96,5,8
-0.3348,1.6465,1.4791,-70.56,-96.74,-58.66,216,12
-0.5329,-0.0356,1.016,-7.77,-94.08,-16.03,499,16
-0.5246,0.1205,1.0019,-6.3,-6.79,-5.95,639,5
-0.6446,0.1713,0.8257,-5.04,18.13,-3.5,723,11
-0.591,0.1191,0.8764,-7.91,24.57,-8.05,785,5
-0.5309,0.1659,0.9643,-8.75,61.53,-10.08,792,7
-0.5641,0.1332,0.9028,-18.62,103.25,-17.57,752,5
-0.609,0.1791,0.8296,-25.97,140.77,-40.39,637,8
-0.9731,0.569,0.8535,-101.78,121.38,-80.99,339,5
-1.1375,0.0742,0.9106,-196,82.11,-94.57,63,12
-1.0965,0.5592,0.8272,-335.86,47.81,-84.98,23,8
-0.1059,1.1644,1.1902,-156.17,-6.51,72.17,7,5
0.0454,1.0253,1.0067,-209.65,-29.12,135.17,16,5
-0.6564,1.3957,0.9457,-157.5,-130.13,152.46,14,5
-0.8413,1.2429,0.6949,-63.49,-193.9,193.83,20,8
-1.504,1.6743,0.5022,36.4,-228.83,246.47,14,5
-1.5582,1.527,0.2791,24.15,-174.93,385.56,12,7
-1.7168,0.6212,0.0781,27.79,-60.83,488.25,9,6
-2.4903,-0.3411,-0.9511,91.77,125.58,364.98,13,5
-2.2873,-1.5372,-1.2517,75.46,200.27,98.91,10,12
-13.0764,5.0386,0.3689,-144.2,-290.22,-378.91,12,3
-4.0606,-6.4704,5.1933,-1123.29,31.71,-175.7,7,7
-0.1459,1.3859,1.2112,-66.08,-43.89,-15.68,361,11
-0.6583,-0.0117,0.8115,-11.27,-12.11,-14.49,575,7
-0.5402,0.1318,0.9428,0.21,8.61,-2.1,694,10
-0.5348,0.1776,0.9872,-3.15,44.24,0.42,753,3
-0.4797,0.1581,1.1141,2.66,137.69,-7.35,763,6
-0.4914,0.1864,0.8447,-8.19,203.98,-25.69,680,7
-0.6822,0.1493,0.6686,-28.98,242.41,-36.33,335,6
-1.5943,0.2943,0.7237,-37.38,211.4,-24.78,39,12
-1.3415,0.2098,0.9126,-82.46,167.58,-33.04,19,8
-0.9784,0.0669,1.7832,-13.16,138.25,-6.09,15,3
-0.1362,0.9013,2.1858,68.39,-28.84,-92.89,16,7
0.0791,0.8184,1.5323,73.43,-120.47,-68.88,7,3
-0.3192,0.8472,1.2659,71.54,-176.68,15.19,16,3
-0.6769,0.5929,1.1463,97.65,-232.82,70.14,12,7
-0.8501,0.486,1.0834,138.95,-284.97,87.36,11,8
-1.2688,0.2948,1.0014,167.86,-262.57,136.01,16,8
-1.7285,0.3592,-0.0766,118.3,-98.7,171.08,13,2
-2.807,-1.0497,-0.8828,113.19,2.87,103.32,11,9
-2.2794,-1.3576,-1.6865,146.02,87.01,-121.1,10,8
-2.136,-1.3293,2.8841,-439.74,-50.96,-107.38,11,9
-0.3104,1.3142,1.2747,80.36,-33.04,0.28,311,6
-0.5036,0.4695,1.0146,-55.3,-0.14,-34.93,549,4
-0.5212,0.3157,0.9326,14.35,27.3,1.33,688,0
-0.6744,0.185,0.8106,-3.99,55.72,-6.09,759,7
-0.5129,0.2772,1.0067,0.84,109.41,-10.85,779,0
-0.3284,0.3396,1.0795,5.04,198.59,-38.01,735,0
-0.7081,0.2342,0.7115,-18.06,256.34,-58.52,464,5
-1.3596,0.1708,0.629,-42.98,257.67,-49.91,64,0
-1.6646,0.2635,0.5788,-35.49,189.7,-74.9,15,3
-0.9653,-0.061,0.7891,-41.16,175.07,-64.33,12,9
-1.2503,0.042,1.6265,42,147.7,-65.1,16,9
-0.6066,0.1698,1.912,84.42,109.13,-62.02,15,7
-0.8398,0.3884,1.7602,107.8,17.64,-47.67,23,7
-0.3562,0.0844,1.2015,118.44,-102.41,13.23,11,0
-0.4143,-0.0903,0.7828,187.11,-251.58,44.94,9,12
-0.5124,-0.2708,0.8857,206.78,-300.37,104.93,16,12
-0.976,0.0673,1.2342,186.34,-311.64,168.49,7,7
-1.4982,-0.5793,0.9223,167.09,-286.51,183.12,7,8
-2.806,-0.5919,-0.0278,50.54,-168,106.96,18,4
-2.6528,-0.9609,-1.3679,76.16,-63.7,3.36,7,5
-1.5416,-0.7359,-1.6597,5.67,104.58,-17.57,10,6
-6.0253,1.6616,0.1459,-710.85,-98.28,-107.94,15,8
-0.1415,0.2528,1.6743,163.45,-84.49,-39.34,399,6
-0.6446,-0.2118,0.8398,-0.49,10.99,-12.74,599,8
-0.5358,0.0952,0.9179,-7.07,46.69,-3.99,706,3
-0.6383,0.2235,0.9209,14.14,77,-5.32,774,8
-0.4621,0.163,1.0878,-7.35,158.34,-14.21,776,8
-0.6056,0.0634,0.8608,-28.63,272.58,-28.84,571,3
-1.2986,-0.0615,0.6549,-29.4,297.36,-14.42,102,5
-1.8183,0.2064,0.5275,-10.15,244.09,-22.96,21,7
-0.995,-0.0386,0.7232,-42.91,170.17,-8.61,17,6
-0.8628,-0.2401,1.5128,-23.1,145.74,-27.09,15,0
-0.6315,0.4651,1.9232,48.86,51.03,-117.95,15,6
-0.6295,0.7379,1.686,120.82,-23.8,-115.36,5,5
-0.7213,0.5568,1.4323,130.76,-103.88,-55.44,16,10
-0.4856,0.5261,1.036,137.76,-212.38,17.01,18,8
-0.6642,0.3011,0.9321,127.82,-279.86,53.34,11,8
-0.8481,0.3558,0.9501,121.1,-305.62,117.88,12,4
-1.1619,0.345,0.8042,129.5,-287.98,205.17,16,8
-1.6836,0.2377,0.0864,59.92,-164.71,250.18,12,10
-3.0715,-0.6905,-0.8686,108.57,-33.53,192.01,18,10
-1.403,-1.7095,-1.2454,-82.95,32.27,3.29,9,7
-3.2877,-2.8309,-3.3853,-256.9,-117.81,-140,57,7
-0.8462,-0.672,0.893,-47.39,-12.25,-6.72,577,6
-1.0482,0.5017,0.7188,-41.58,-1.68,-14.77,785,3
-0.5202,0.0737,1.0043,-14.98,30.87,-11.34,908,6
-0.3958,0.2508,1.2224,12.74,118.79,-18.06,970,6
-0.2625,0.3011,1.1932,-10.36,246.12,-52.71,951,8
-0.6734,0.1893,0.7403,-77.42,329.63,-91.63,558,4
-1.2971,-0.3762,0.6598,-41.09,315,-58.87,57,6
-2.236,0.1371,0.9477,-77.84,191.1,-58.52,25,8
-0.6959,-0.265,0.8867,-169.82,144.69,-38.08,10,11
-0.53,0.3909,1.5211,20.37,73.78,-76.3,6,2
-0.7188,0.5866,1.8344,-0.56,34.09,-104.37,15,9
-0.6915,0.9618,1.5362,59.64,-88.69,-71.47,15,2
-0.7818,0.7022,1.218,75.39,-175.49,-11.69,14,4
-0.8101,0.6866,0.8452,61.67,-255.15,59.01,12,5
-0.795,0.5319,0.6891,87.57,-298.48,138.81,16,8
-0.913,0.6012,0.772,74.9,-283.36,220.5,11,2
-1.5972,0.5666,0.6261,87.5,-231.14,333.48,10,8
-2.2277,-0.1923,-0.3123,60.27,-71.89,314.3,7,3
-2.623,-0.1157,-1.5943,70.91,-5.04,161.7,12,5
-1.3493,-1.2615,-1.7651,85.82,96.67,4.55,13,7
-4.4008,-0.1225,0.0059,-518.98,-156.73,-129.78,68,8
-0.2172,0.364,1.1717,-36.96,-33.88,-5.11,670,8
-0.6183,-0.2552,0.8306,-2.45,20.79,-8.96,825,10
-0.5602,0.0137,1.0604,11.9,62.72,-4.34,918,8
-0.4011,0.2913,1.1444,-1.47,157.01,-20.09,958,5
-0.3855,0.3167,1.0448,-25.9,254.24,-59.99,882,3
-0.9467,0.1249,0.6974,-75.32,312.76,-88.13,413,9
-1.099,-0.0917,0.5871,-32.69,294,-41.51,40,7
-1.892,0.1152,0.8452,-75.88,189.56,-33.39,23,6
-0.7842,-0.0786,0.9745,-170.38,179.62,-27.37,15,6
-1.0077,0.2079,1.9525,67.62,80.57,-79.1,15,8
-0.8857,0.7603,1.7568,45.99,-23.8,-152.46,16,4
-1.1702,0.9819,1.4996,104.02,-163.52,-111.65,14,10
-0.752,1.0843,0.8628,57.68,-240.17,-21.56,15,3
-0.7803,0.795,0.5993,76.3,-282.73,92.47,12,7
-0.8452,0.6305,0.6085,87.99,-288.26,198.87,13,3
-0.934,0.6085,0.8394,76.72,-276.5,272.16,12,3
-1.7895,0.1269,0.5905,104.79,-190.33,342.3,14,7
-2.8548,-0.2167,-0.57,8.82,-62.79,247.17,9,5
-2.6113,-0.7779,-2.0418,19.95,6.37,67.62,16,6
-1.2083,-1.3327,-1.4664,84.84,121.24,-25.62,11,6
1.5216,-2.6694,7.7016,-970.2,-78.68,-116.83,108,9
-1.0302,1.0028,1.1414,112,-64.68,-14.84,599,27
-0.4987,0.2006,0.8472,-11.13,22.75,-17.29,809,12
-0.5832,0.1069,0.9155,-5.46,46.2,-4.9,916,4
-0.4631,0.2904,1.2068,0,90.44,-13.02,976,6
-0.245,0.2059,1.1922,-14.49,202.44,-37.31,924,12
-0.5817,0.4656,0.7559,-71.75,297.5,-68.81,648,10
-1.3322,-0.4065,0.571,-86.03,292.81,-58.31,96,4
-1.892,0.0693,0.7188,-74.13,204.19,-58.8,25,6
-0.7227,-0.1537,0.8389,-170.52,181.09,-45.85,25,8
-0.9999,-0.6115,1.7324,-22.96,150.5,-42.91,14,3
-0.3411,0.651,1.9642,-1.12,38.29,-111.79,13,8
-0.8794,0.954,1.9076,59.29,-59.92,-99.75,12,3
-0.652,1.0282,1.2122,31.71,-172.41,-28.42,15,3
-0.7335,0.8555,0.7305,81.2,-264.39,65.8,18,8
-0.8935,0.4778,0.6803,106.12,-289.1,125.65,16,6
-0.8603,0.6978,0.7662,71.82,-275.73,227.22,12,0
-1.8271,0.2118,0.161,91.21,-172.48,320.11,14,9
-3.3008,-0.1215,-0.6676,15.33,-69.16,240.45,12,6
-1.9481,-2.3873,-1.7778,-7,17.57,20.79,11,3
-1.22,-0.7501,-1.2132,79.8,121.17,-48.09,5,4
1.9476,-6.1298,1.4908,-390.18,-88.27,-95.34,120,0
-0.6876,0.5954,1.0804,-167.3,-15.47,-15.82,562,5
-0.3758,0.4982,0.9277,-58.1,11.41,-10.85,751,8
-0.5714,0.1469,0.9072,-22.61,36.47,-8.68,861,9
-0.5217,0.1708,1.0653,0,73.99,-6.79,941,3
-0.2845,0.2474,1.2112,-12.6,189.42,-24.01,941,6
-0.6227,0.3255,0.8799,-48.72,277.27,-59.5,731,12
-1.2503,-0.0088,0.7125,-117.39,287.14,-70.14,141,5
-1.7197,0.0913,0.6105,-69.44,229.74,-64.75,32,5
-0.8023,0.0834,0.8276,-145.53,173.74,-55.65,21,7
-0.61,-0.6071,1.8227,-25.27,131.25,-39.76,22,8
-0.4948,0.916,2.0398,-2.87,21.07,-92.61,20,4
-0.5812,0.7886,1.7426,43.96,-67.06,-51.31,15,0
-0.6261,0.7901,1.282,42.42,-132.02,2.52,11,5
-0.611,0.4504,0.8843,69.23,-222.95,41.72,11,7
-0.6978,0.5412,0.6808,96.39,-287.91,91.07,16,7
-0.8774,0.5226,0.7823,96.74,-270.27,189.56,20,3
-1.7178,0.1747,0.5231,74.06,-229.53,291.55,14,8
-2.3282,-0.734,-0.4104,20.44,-95.48,214.62,16,4
-3.3794,-0.588,-1.3181,114.87,-10.99,91.91,11,8
-1.7207,-1.159,-1.422,97.86,101.01,-9.24,8,5
-2.6015,-4.4579,0.6827,-657.51,-159.6,-52.99,52,7
-0.266,-0.2782,1.239,-99.12,-54.67,-18.62,506,16
-0.4407,-0.3128,1.0189,-55.02,17.92,-4.2,736,5
-0.5988,0.1396,0.8804,7.84,44.17,-4.48,850,6
-0.4397,0.2967,1.1336,-1.05,99.96,-11.34,925,8
-0.3109,0.2547,1.0599,-14.63,207.41,-36.26,916,6
-0.6437,0.2362,0.7432,-50.05,272.65,-59.92,679,16
-1.2376,-0.2137,0.6637,-95.34,278.67,-54.53,114,12
-1.6807,-0.0093,0.7213,-32.06,229.95,-41.79,17,8
-0.9545,0.1381,0.8564,-109.97,186.76,-45.15,28,4
-0.7213,-0.5324,1.971,2.8,132.86,-59.29,21,3
-0.5226,0.8623,2.0423,29.75,3.22,-121.66,15,6
-0.3689,0.9252,1.3693,63.98,-112,-58.31,7,5
-0.4602,0.6373,0.9877,66.5,-182.77,32.97,12,7
-0.752,0.4246,0.8413,85.47,-251.51,95.13,20,7
-0.9013,0.2962,0.8301,109.2,-284.55,132.09,17,5
-1.1346,0.2054,0.9072,110.25,-272.72,183.96,20,8
-1.6997,0.0264,0.0278,76.02,-190.54,223.86,15,6
-2.9309,-0.7032,-0.8774,126.49,-58.1,186.9,12,5
-1.8056,-1.6651,-1.6411,-10.78,35.91,15.26,7,8
-3.4502,1.9603,-0.527,-119.35,-16.1,-308.21,9,8
-1.8754,0.1757,0.2884,266.84,-144.76,-88.83,382,6
-0.3118,0.4109,1.1107,-13.02,-15.82,-0.84,634,6
-0.4997,0.3855,0.8545,19.46,22.4,-5.81,784,7
-0.6085,0.2991,0.9599,-3.78,51.38,-7.28,875,3
-0.4143,0.2723,1.1619,-7.91,128.66,-19.81,921,10
-0.2489,0.3211,0.9306,-19.53,229.67,-43.96,861,6
-0.6856,0.2406,0.7022,-46.83,270.76,-64.61,467,5
-1.4054,-0.3011,0.7652,-32.13,273.49,-57.68,73,3
-1.7724,0.021,1.039,-21.77,198.38,-46.13,20,9
-0.8252,-0.0615,1.3034,-84.77,168.28,-44.38,19,6
-0.3245,0.9706,1.9876,35.07,39.48,-117.53,15,4
-0.5236,0.6808,1.6577,51.1,-63.7,-86.52,15,2
-0.2518,0.67,1.1439,44.31,-130.9,15.89,13,9
-0.5505,0.4719,0.8301,69.3,-238.98,81.41,12,8
-0.8721,0.3045,0.7915,119.28,-279.86,100.73,13,8
-0.9653,0.3889,0.8403,95.41,-273.77,184.38,11,6
-1.6694,0.0669,0.4519,93.87,-215.95,248.36,15,5
-2.9661,-0.5436,-0.2416,71.4,-67.41,176.26,20,5
-1.8705,-1.0043,-1.6246,3.92,9.38,17.15,13,9
-9.0885,2.9329,-0.8623,36.54,-69.65,-247.94,8,8
-1.0624,-1.6587,0.6388,325.5,-83.79,-89.67,202,9
-0.5095,0.246,1.1244,35.14,-55.37,-17.08,582,8
-0.5763,-0.102,0.8516,-9.45,18.69,-6.44,751,8
-0.5588,0.1718,0.9292,1.61,48.86,-5.04,848,8
-0.4748,0.2416,1.0765,0.14,93.94,-6.02,900,7
-0.3489,0.1718,1.1317,-8.75,192.01,-30.59,878,3
