ax,ay,az,gx,gy,gz,toe,heel
-0.5656,0.0732,0.8623,-1.61,-2.94,-0.21,8,909
-0.5661,0.082,0.8618,-2.24,-4.69,-1.05,1,892
-0.5632,0.0664,0.8682,-3.15,-5.25,-0.21,7,896
-0.5568,0.0547,0.8774,-0.42,-4.13,1.4,5,913
-0.5592,0.0839,0.8638,0.63,-3.92,1.89,4,927
-0.5495,0.059,0.8813,-0.07,-2.8,2.94,4,942
-0.5519,0.081,0.8725,0.56,0.84,5.25,8,910
-0.5558,0.101,0.8506,-0.28,0.07,1.82,6,820
-0.5549,0.0786,0.8662,0.07,-0.63,0.84,1,776
-0.5597,0.063,0.8613,0.56,0.56,2.52,0,717
-0.5592,0.083,0.8511,0.21,-0.14,1.96,5,659
-0.5627,0.0722,0.8564,0.07,-0.35,1.33,7,618
-0.5636,0.0776,0.8569,0.28,-0.28,2.03,6,572
-0.5671,0.0981,0.8516,0.91,-0.84,1.75,3,524
-0.5685,0.102,0.8506,-0.28,-2.03,0.84,7,527
-0.5622,0.0898,0.8545,-0.42,-2.73,0.77,12,524
-0.5671,0.0986,0.8599,-0.56,-2.94,0.91,1,532
-0.5632,0.0947,0.8579,0,-3.57,1.12,3,535
-0.5636,0.0888,0.8579,-0.21,-3.71,1.47,8,569
-0.5583,0.0859,0.8555,-0.42,-2.94,1.75,5,590
-0.5592,0.0961,0.856,0.42,-2.17,1.47,1,610
-0.5641,0.0937,0.853,0.14,-2.1,1.05,7,609
-0.5597,0.0932,0.8491,0.56,-2.31,1.05,6,612
-0.5592,0.0947,0.8574,0.77,-1.96,0.84,12,614
-0.5656,0.0956,0.8535,0.84,-1.89,1.05,9,617
-0.5602,0.0971,0.8525,0.28,-1.82,1.47,3,615
-0.5617,0.0893,0.8579,0.49,-1.61,1.33,11,614
-0.5622,0.0966,0.8535,0.07,-1.4,1.4,6,607
-0.5641,0.102,0.8525,0,-1.4,0.77,5,583
-0.5646,0.0966,0.8506,-0.14,-1.47,0.7,7,575
-0.5627,0.1005,0.8506,-0.42,-1.75,0.28,10,562
-0.5641,0.0976,0.8477,-0.28,-2.24,0.77,4,558
-0.5685,0.1015,0.8525,-0.84,-2.31,0.91,5,556
-0.5651,0.0927,0.8481,-0.21,-2.59,0.7,8,552
-0.5622,0.0903,0.8511,-0.49,-2.38,0.63,1,545
-0.5661,0.0971,0.8506,-0.7,-2.38,0.91,7,530
-0.5661,0.0908,0.8506,-0.42,-2.45,0.91,5,533
-0.5597,0.1005,0.8525,-0.63,-2.31,0.84,6,539
-0.5656,0.0976,0.8491,-0.98,-2.17,0.14,8,529
-0.5651,0.0922,0.8496,-0.56,-2.24,0.42,12,511
-0.5685,0.0893,0.8525,-0.35,-2.38,0.98,9,506
-0.5666,0.0952,0.8472,-0.42,-2.52,1.05,7,503
-0.5666,0.0898,0.853,-0.63,-2.45,1.12,3,509
-0.5617,0.0947,0.8486,-0.42,-2.59,1.19,4,515
-0.5671,0.0932,0.8516,-0.63,-2.59,0.77,0,519
-0.5641,0.0961,0.8501,-0.63,-2.45,1.26,5,513
-0.5671,0.0878,0.8501,-0.7,-2.52,0.98,3,527
-0.5656,0.0961,0.8516,-0.28,-2.66,1.33,10,527
-0.5671,0.0913,0.8525,-0.49,-2.38,1.47,8,525
-0.5641,0.0976,0.8481,-0.7,-2.52,1.19,0,528
-0.568,0.0903,0.8511,-0.56,-2.66,1.19,4,527
-0.5617,0.0922,0.853,-0.7,-2.59,1.19,7,534
-0.5651,0.0971,0.8516,-0.28,-2.59,1.47,7,532
-0.5622,0.0947,0.8525,-0.49,-2.59,1.47,12,531
-0.5622,0.0913,0.8516,-0.63,-2.45,1.33,8,540
-0.5641,0.0947,0.8486,-0.28,-2.66,1.4,7,550
-0.5632,0.0937,0.852,-0.42,-2.45,1.19,6,554
-0.5641,0.0947,0.8501,-0.56,-2.8,1.4,9,558
-0.5651,0.0937,0.8496,-0.35,-2.87,1.26,10,567
-0.5646,0.0922,0.854,-0.35,-2.8,1.4,6,573
-0.5636,0.0947,0.8481,-0.56,-2.59,1.54,3,584
-0.5641,0.0942,0.8511,-0.63,-2.59,1.33,1,590
-0.5627,0.0927,0.853,-0.63,-2.38,1.19,8,589
-0.5612,0.0961,0.8511,-0.77,-2.17,1.05,8,592
-0.5651,0.0942,0.8511,-0.42,-2.38,1.26,4,592
-0.5656,0.0956,0.8535,-0.35,-2.45,1.12,6,594
-0.5627,0.0908,0.8516,-0.42,-2.45,1.19,3,600
-0.5617,0.0932,0.853,-0.56,-2.59,1.26,3,601
-0.5607,0.0913,0.853,-0.28,-2.59,1.33,5,602
-0.5612,0.0991,0.8525,-0.63,-2.45,0.84,4,608
-0.5651,0.0903,0.8525,-0.42,-2.31,1.47,4,603
-0.5666,0.0942,0.8501,-0.7,-2.17,1.33,3,599
-0.5612,0.0952,0.8501,-0.63,-1.96,1.4,9,602
-0.5661,0.0947,0.8525,-0.7,-2.1,1.12,0,607
-0.5617,0.1025,0.854,-0.7,-2.38,0.77,8,607
-0.5641,0.0937,0.8516,-0.56,-2.73,0.56,1,608
-0.5622,0.0937,0.8511,-0.14,-2.73,0.49,5,605
-0.5646,0.0927,0.8496,-1.26,-2.66,0.91,5,605
-0.5612,0.0996,0.8496,-1.26,-2.94,0.35,4,606
-0.5617,0.0883,0.8516,-1.47,-2.59,0.84,10,609
-0.5641,0.0888,0.8511,-2.1,-3.15,0.07,5,609
-0.5627,0.0908,0.8579,-1.68,-2.8,0.07,7,609
-0.5617,0.0942,0.8481,-0.98,-3.01,-0.07,6,607
-0.5602,0.0883,0.853,-0.7,-1.75,0.42,4,614
-0.5612,0.0893,0.856,-0.56,-1.68,0.42,7,608
-0.5607,0.0961,0.8516,-0.56,-2.24,0.14,18,595
-0.5646,0.0869,0.8555,-0.91,-2.66,-0.42,29,599
-0.5612,0.0673,0.8555,0.28,-1.61,0.21,31,591
-0.5651,0.0903,0.852,-0.42,-2.24,-0.21,59,584
-0.569,0.0932,0.8545,-3.22,-2.73,-0.42,81,575
-0.5685,0.0781,0.8525,-2.45,-3.64,-0.63,91,572
-0.5578,0.081,0.855,-0.56,-3.36,-0.14,91,567
-0.5612,0.0815,0.855,0.21,-3.29,0.35,87,567
-0.5627,0.0825,0.8525,-0.63,-2.1,1.19,92,561
-0.5641,0.0747,0.8516,0,-1.89,1.33,98,551
-0.5563,0.0893,0.8613,-0.42,-1.68,0.98,97,529
-0.5602,0.0781,0.8501,-0.77,-1.26,0.77,93,482
-0.5666,0.0712,0.8477,0,-1.33,1.68,83,464
-0.5622,0.0903,0.855,-0.07,-1.54,1.26,85,453
-0.5632,0.0771,0.8535,-0.49,-1.4,0.98,86,440
-0.5671,0.0795,0.8516,0.07,-1.61,1.33,86,418
-0.5666,0.0795,0.8491,-0.14,-1.68,1.12,83,396
-0.5632,0.0864,0.856,-0.21,-1.75,0.91,85,374
-0.569,0.081,0.8491,-0.84,-1.61,0.77,89,342
-0.5646,0.0781,0.8511,-0.28,-1.75,0.98,89,337
-0.5651,0.0834,0.8516,-0.42,-1.96,0.98,90,315
-0.5646,0.0903,0.8462,-0.63,-2.24,0.49,90,315
-0.5661,0.0766,0.8506,-0.21,-2.66,0.63,91,305
-0.5671,0.0864,0.8491,-0.7,-2.73,0.98,97,313
-0.5632,0.08,0.8545,-0.63,-2.59,1.12,89,319
-0.5661,0.0805,0.853,-0.7,-1.47,1.19,93,320
-0.5675,0.0776,0.8491,-0.28,-1.19,1.33,95,291
-0.5724,0.0795,0.8467,-0.56,-2.66,1.4,93,300
-0.5646,0.0815,0.8496,-0.63,-2.38,1.05,90,302
-0.5675,0.0737,0.8564,-0.14,-2.45,0.91,87,290
-0.5661,0.081,0.8496,-0.07,-1.96,1.54,90,288
-0.569,0.0825,0.8501,-0.49,-2.17,1.4,76,296
-0.5719,0.08,0.8477,0.28,-1.96,1.89,70,285
-0.5685,0.0795,0.8481,-0.07,-2.24,2.38,61,289
-0.571,0.0893,0.8496,-0.28,-3.15,1.89,46,314
-0.5661,0.0693,0.8525,-0.28,-2.59,1.68,36,322
-0.5666,0.0903,0.8506,-0.77,-2.17,1.68,35,329
-0.5636,0.0791,0.8491,0,-2.66,0.7,33,325
-0.5671,0.08,0.8506,-0.7,-1.96,1.12,37,324
-0.5705,0.0859,0.8496,-0.35,-1.75,1.19,40,329
-0.5671,0.0874,0.8506,-0.63,-1.96,0.63,40,327
-0.5695,0.081,0.8472,-0.42,-1.4,1.12,45,319
-0.5671,0.0791,0.8501,-0.21,-1.82,0.84,48,312
-0.571,0.0771,0.8481,-0.07,-0.91,1.68,43,296
-0.571,0.081,0.8481,0.35,-0.35,1.47,44,271
-0.5705,0.0878,0.8506,0.7,-0.49,1.12,40,284
-0.5641,0.0683,0.8233,5.67,0.07,1.05,53,253
-0.5719,0.0981,0.8472,0,-1.12,1.26,56,238
-0.5724,0.0854,0.8394,0.63,-0.7,1.26,55,225
-0.5739,0.0947,0.8477,0.14,-0.98,0.98,62,210
-0.5734,0.0937,0.8418,0.21,-1.54,1.54,72,199
-0.571,0.0898,0.8477,0.35,-1.54,0.7,75,200
-0.5729,0.063,0.8394,3.08,-0.14,0.98,79,173
-0.5778,0.0952,0.8403,0.35,-2.1,1.33,80,158
-0.5768,0.0878,0.8442,-0.14,-2.52,1.05,77,155
-0.5734,0.0888,0.8462,-0.28,-1.19,1.33,78,159
-0.5797,0.0878,0.8423,0.21,-1.47,1.26,79,156
-0.5793,0.0898,0.8428,0.42,-1.47,1.26,78,149
-0.5793,0.0883,0.8433,-0.42,-1.47,1.33,75,138
-0.5856,0.0908,0.8413,-0.07,-1.96,1.12,80,115
-0.5827,0.0898,0.8398,-0.35,-1.61,1.12,78,122
-0.5793,0.0927,0.8433,0.21,-1.47,1.26,80,123
-0.5822,0.0625,0.835,-0.35,-0.98,1.47,76,111
-0.5797,0.0952,0.8389,0,-1.82,0.91,72,102
-0.5797,0.0942,0.8398,-0.84,-1.68,1.4,62,99
-0.5807,0.0971,0.8384,-0.63,-1.47,1.05,69,98
-0.5861,0.0917,0.8394,-0.49,-1.19,0.98,52,101
-0.5861,0.0898,0.8398,-1.12,-1.33,1.19,45,106
-0.5861,0.0888,0.8359,-1.47,-1.19,1.4,38,111
-0.5866,0.0903,0.8379,-1.05,-1.68,1.05,29,112
-0.588,0.0898,0.8345,-0.7,-1.96,1.05,23,104
-0.5851,0.0878,0.8355,-0.49,-2.24,1.26,28,111
-0.5856,0.0932,0.8355,-0.28,-2.38,1.19,30,113
-0.5866,0.0908,0.8379,-0.56,-2.94,1.12,32,112
-0.5832,0.0937,0.8369,-0.49,-3.08,0.98,32,110
-0.5841,0.0893,0.8384,-0.7,-2.73,1.05,29,107
-0.5841,0.0971,0.8384,-0.63,-2.73,1.05,31,103
-0.5836,0.0864,0.8379,-0.63,-2.66,1.26,25,108
-0.5846,0.0932,0.8355,-0.77,-2.45,1.19,28,107
-0.5866,0.0922,0.8379,-0.21,-2.73,1.19,27,110
-0.5866,0.0883,0.8355,-0.35,-2.8,1.26,32,114
-0.5836,0.0927,0.8364,-0.35,-3.01,0.91,25,118
-0.5827,0.0917,0.8374,-0.35,-2.94,1.19,25,124
-0.5871,0.0937,0.8359,-0.63,-2.87,1.12,28,131
-0.5851,0.0903,0.8394,-0.42,-2.38,1.4,24,143
-0.5807,0.0903,0.8369,-0.35,-2.8,1.47,23,150
-0.5841,0.0883,0.8394,-0.56,-2.94,1.4,19,159
-0.5836,0.0927,0.8384,-0.07,-2.24,1.33,24,183
-0.5827,0.0917,0.8389,-0.21,-2.8,1.19,17,195
-0.5851,0.0932,0.8394,-0.7,-2.31,1.82,17,203
-0.5817,0.0917,0.8374,-0.56,-2.73,1.47,18,218
-0.5797,0.0922,0.8389,-0.35,-2.59,1.33,15,222
-0.5851,0.0927,0.8403,-0.28,-2.73,1.47,14,234
-0.5822,0.0908,0.8394,-0.28,-2.45,1.61,19,243
-0.5807,0.0932,0.8403,-0.28,-3.36,1.54,13,258
-0.5812,0.0932,0.8408,-0.21,-3.15,1.54,18,272
-0.5822,0.0961,0.8384,-0.14,-3.29,1.19,15,275
-0.5822,0.0932,0.8423,-0.28,-3.36,1.54,21,285
-0.5788,0.0937,0.8418,-0.07,-3.01,1.19,18,307
-0.5812,0.0903,0.8433,-0.21,-3.22,1.33,19,320
-0.5788,0.0956,0.8423,0,-3.22,1.19,18,327
-0.5773,0.0952,0.8418,-0.49,-2.94,1.19,17,347
-0.5783,0.0903,0.8423,17.57,-2.94,0.7,17,356
-0.5758,0.0966,0.8433,-0.56,-2.45,1.4,19,351
-0.5768,0.0952,0.8423,-0.35,-2.59,1.33,15,351
-0.5788,0.0947,0.8418,-0.35,-2.87,1.26,24,349
-0.5763,0.0952,0.8423,-0.35,-3.22,1.47,24,352
-0.5754,0.0966,0.8408,-0.63,-3.22,1.19,16,362
-0.5749,0.0981,0.8462,-0.49,-3.08,1.19,12,365
-0.5768,0.0961,0.8428,-1.12,-3.08,1.05,16,370
-0.5749,0.0932,0.8438,-0.7,-3.15,1.26,15,376
-0.5778,0.0947,0.8428,-0.7,-3.01,1.33,12,375
-0.5729,0.0976,0.8442,-0.49,-2.8,1.19,16,383
-0.5768,0.0922,0.8447,-0.7,-2.59,1.12,10,393
-0.5739,0.0908,0.8438,-0.56,-2.31,1.19,16,405
-0.5749,0.0927,0.8447,-0.56,-2.8,1.4,15,400
-0.5734,0.0956,0.8418,0,-2.94,0.63,16,404
-0.5754,0.0937,0.8462,-0.63,-2.8,1.19,16,403
-0.5714,0.0942,0.8472,-0.77,-2.52,1.33,12,402
-0.5763,0.0971,0.8433,-0.63,-2.73,1.05,12,408
-0.5758,0.0908,0.8481,-0.49,-2.38,1.26,20,414
-0.5729,0.0986,0.8467,-0.56,-2.73,0.98,11,419
-0.5739,0.0927,0.8428,-0.63,-2.66,0.91,17,420
-0.5754,0.0917,0.8462,-0.35,-2.66,0.98,13,419
-0.5739,0.0947,0.8442,-0.28,-2.52,1.12,9,415
-0.5749,0.0927,0.8467,0,-2.66,1.19,7,415
-0.5754,0.0952,0.8438,-0.28,-2.52,1.33,7,407
-0.5729,0.0937,0.8457,-0.21,-2.45,1.19,11,413
-0.5734,0.0956,0.8457,-0.14,-2.66,1.12,9,414
-0.5739,0.0922,0.8457,-0.42,-2.45,1.33,12,421
-0.5705,0.0952,0.8438,-0.63,-2.1,1.47,16,414
-0.5729,0.0942,0.8457,-0.35,-2.66,1.05,12,412
-0.5734,0.0913,0.8462,-0.35,-2.38,1.19,11,416
-0.5714,0.0932,0.8462,-0.21,-2.8,0.84,16,412
-0.5758,0.0952,0.8452,-0.49,-2.94,1.19,14,416
-0.5714,0.0981,0.8433,-0.35,-2.45,1.19,10,413
-0.5734,0.0927,0.8423,-0.7,-2.31,1.26,15,424
-0.5714,0.0937,0.8477,-0.49,-2.45,1.12,14,417
-0.5754,0.0947,0.8442,-0.35,-2.52,1.47,11,416
-0.5729,0.0908,0.8433,-0.49,-2.24,1.19,12,424
-0.5719,0.0956,0.8491,-0.14,-2.59,1.19,9,422
-0.5739,0.0961,0.8467,-0.35,-2.24,1.12,13,424
-0.57,0.0942,0.8472,-0.28,-2.45,1.33,8,424
-0.571,0.0961,0.8467,-0.42,-2.52,1.4,9,426
-0.5758,0.0932,0.8462,-0.42,-2.66,1.4,7,435
-0.5734,0.0947,0.8462,-0.35,-2.66,1.19,10,436
-0.5705,0.0966,0.8477,-0.49,-2.45,1.19,8,434
-0.5705,0.0917,0.8452,-0.49,-2.59,1.54,4,437
-0.5719,0.0981,0.8477,-0.7,-2.66,1.33,5,448
-0.5719,0.0942,0.8462,-0.42,-2.59,1.33,9,439
-0.5714,0.0937,0.8477,-0.49,-2.59,1.26,11,443
-0.57,0.0947,0.8506,-0.42,-2.31,1.33,7,441
-0.5695,0.0937,0.8472,-0.63,-2.17,1.54,6,440
-0.5729,0.0966,0.8447,-0.56,-2.38,1.4,10,440
-0.5695,0.0937,0.8491,-0.84,-2.24,1.19,8,448
-0.5719,0.0971,0.8467,-0.49,-2.66,1.33,10,443
-0.5695,0.0947,0.8477,-0.49,-2.38,1.26,4,442
-0.571,0.0952,0.8467,-0.21,-2.52,1.05,3,444
-0.5719,0.0937,0.8481,-0.49,-2.38,1.12,8,443
-0.5729,0.0956,0.8477,-0.35,-2.24,1.12,8,446
-0.57,0.0947,0.8442,-0.63,-2.59,1.19,8,442
-0.5714,0.0956,0.8477,-0.42,-2.59,1.12,8,446
-0.5714,0.0942,0.8442,-0.42,-2.52,0.91,5,441
-0.5729,0.0942,0.8481,-0.63,-2.45,1.05,9,440
-0.5744,0.0971,0.8452,-0.77,-2.38,1.26,12,444
-0.57,0.0927,0.8462,-0.28,-2.45,0.91,7,440
-0.5724,0.0971,0.8457,-0.35,-2.38,1.12,10,442
-0.5724,0.0961,0.8491,-0.35,-2.24,1.05,7,440
-0.5705,0.0961,0.8452,-0.63,-2.17,1.33,5,448
-0.5714,0.0956,0.8481,-0.35,-2.59,0.77,7,436
-0.5734,0.0966,0.8457,-0.35,-2.45,1.19,12,440
-0.571,0.0942,0.8462,-0.56,-2.1,1.4,6,435
-0.5719,0.0942,0.8472,-0.28,-2.52,1.19,7,435
-0.57,0.0966,0.8447,-0.28,-2.52,1.05,3,442
-0.5705,0.0961,0.8477,-0.42,-2.38,1.26,7,443
-0.5719,0.0952,0.8447,-0.35,-2.31,1.26,7,447
-0.5714,0.0966,0.8496,-0.7,-2.38,1.19,7,441
-0.5705,0.0922,0.8452,-0.42,-2.31,1.33,8,440
-0.5734,0.0961,0.8477,-0.63,-2.31,1.26,12,441
-0.57,0.0947,0.8462,-0.42,-2.31,1.19,4,444
-0.5705,0.0961,0.8467,-0.14,-2.66,0.91,12,442
-0.5724,0.0952,0.8472,-0.28,-2.8,1.19,12,448
-0.5724,0.0952,0.8472,-0.56,-2.1,1.26,9,445
-0.5705,0.0981,0.8472,-0.7,-2.24,1.54,8,448
-0.5734,0.0956,0.8467,-0.28,-2.52,1.12,8,441
-0.57,0.0971,0.8486,-0.49,-2.31,0.63,5,439
-0.5724,0.0966,0.8481,-0.63,-2.31,1.33,5,440
-0.5695,0.0932,0.8467,-0.35,-2.52,0.98,5,439
-0.5724,0.0966,0.8481,-0.56,-2.1,1.05,3,441
-0.5695,0.0966,0.8447,-0.21,-2.38,0.84,13,442
-0.5729,0.0966,0.8457,-0.77,-2.31,1.26,9,443
-0.571,0.0942,0.8462,-0.14,-2.45,0.77,5,445
-0.5705,0.0976,0.8457,-0.42,-1.96,1.26,6,440
-0.5739,0.0961,0.8462,-0.35,-2.59,0.91,8,442
-0.5729,0.0952,0.8447,-0.42,-2.66,1.12,3,444
-0.571,0.0932,0.8477,-0.63,-2.52,1.47,9,444
-0.5729,0.0956,0.8511,-0.35,-2.1,1.33,6,448
-0.5719,0.0966,0.8447,-0.49,-2.24,1.47,9,443
-0.5729,0.0947,0.8477,-0.35,-2.52,0.91,8,443
-0.5714,0.0971,0.8472,-0.42,-2.45,1.26,5,448
-0.571,0.0971,0.8481,-0.49,-2.24,0.98,10,443
-0.5705,0.0991,0.8447,-0.14,-2.31,1.26,8,445
-0.571,0.0937,0.8486,-0.56,-2.38,1.26,9,443
-0.5705,0.0981,0.8472,-0.35,-2.45,1.05,9,448
-0.5724,0.0947,0.8467,-0.42,-2.31,1.26,10,441
-0.5705,0.0991,0.8481,-0.42,-2.73,0.84,3,445
-0.5734,0.0942,0.8438,-0.49,-2.31,1.12,7,439
-0.5685,0.0961,0.8486,-0.35,-2.87,0.84,16,437
-0.5714,0.0976,0.8491,-0.63,-2.03,1.33,10,439
-0.569,0.0937,0.8472,-0.35,-2.59,0.77,5,439
-0.569,0.0976,0.8447,-0.14,-2.24,1.12,8,446
-0.57,0.0937,0.8481,-0.28,-2.45,1.05,5,439
-0.569,0.0961,0.8467,-0.56,-2.24,1.19,5,444
-0.5739,0.0961,0.8467,-0.42,-2.59,1.12,5,440
-0.5724,0.0947,0.8457,-0.35,-2.17,1.33,8,441
-0.5734,0.0971,0.8457,-0.28,-2.59,0.91,3,442
-0.5695,0.0952,0.8477,-0.35,-2.45,1.19,8,441
-0.5671,0.0996,0.8457,-0.35,-2.17,1.4,6,442
-0.5734,0.0947,0.8486,-0.28,-2.45,0.98,8,444
-0.571,0.0966,0.8467,-0.28,-2.52,1.19,7,442
-0.57,0.0976,0.8442,-0.42,-2.31,1.19,12,446
-0.5734,0.0966,0.8477,-0.7,-2.52,1.19,3,446
-0.571,0.0981,0.8467,-0.42,-2.24,1.47,8,446
-0.571,0.0971,0.8442,-0.28,-2.66,1.05,0,442
-0.569,0.1,0.8481,-0.7,-2.1,1.26,10,450
-0.5714,0.0986,0.8457,-0.35,-2.66,0.84,8,447
-0.5705,0.0942,0.8457,-0.28,-2.45,1.54,6,447
-0.5724,0.0937,0.8481,-0.28,-2.59,1.12,8,448
-0.5714,0.0966,0.8452,-0.35,-2.31,1.19,7,446
-0.5729,0.0952,0.8472,-0.07,-3.08,1.05,0,448
-0.568,0.0966,0.8447,-0.21,-2.66,0.91,5,447
-0.5705,0.0956,0.8462,-0.49,-2.66,1.12,3,449
-0.5744,0.0961,0.8516,-0.49,-2.45,1.19,6,447
-0.569,0.0966,0.8491,-0.42,-2.24,1.26,4,448
-0.5724,0.0961,0.8428,-0.35,-2.24,1.33,3,447
-0.5705,0.0956,0.8477,-0.49,-2.38,1.19,11,452
-0.568,0.0981,0.8438,-0.42,-2.31,1.12,9,455
-0.5705,0.0952,0.8477,-0.35,-2.45,0.98,2,455
-0.5729,0.0976,0.8457,-0.49,-2.73,0.84,7,451
-0.5695,0.0966,0.8477,-0.63,-2.38,1.26,5,456
-0.571,0.0976,0.8442,-0.63,-2.31,1.33,8,453
-0.571,0.0937,0.8506,-0.35,-2.24,1.05,7,453
-0.569,0.0971,0.8447,-0.42,-2.24,1.19,12,456
-0.5714,0.0971,0.8472,-0.49,-2.52,1.19,6,458
-0.5685,0.0976,0.8462,-0.28,-2.17,1.19,2,451
-0.5714,0.0966,0.8452,-0.49,-2.31,1.19,8,451
-0.5714,0.0966,0.8486,-0.28,-2.52,1.19,4,456
-0.5729,0.0971,0.8457,-0.35,-2.24,1.19,6,456
-0.571,0.0991,0.8467,-0.42,-2.59,1.05,7,452
-0.569,0.0956,0.8481,-0.28,-2.38,1.05,8,456
-0.5719,0.0942,0.8462,-0.42,-2.52,1.05,8,447
-0.5724,0.0981,0.8477,-0.28,-2.59,0.98,2,453
-0.5719,0.0956,0.8477,-0.42,-2.1,1.05,8,450
-0.5724,0.0952,0.8501,-0.21,-2.24,1.26,7,450
-0.569,0.0952,0.8496,-0.63,-1.75,1.47,8,447
-0.569,0.0966,0.8481,-0.56,-2.1,1.4,7,454
-0.5714,0.0961,0.8501,-0.35,-2.31,1.12,10,446
-0.5685,0.0961,0.8462,-0.84,-2.31,1.33,8,447
-0.5705,0.0956,0.8491,-0.14,-2.59,0.7,10,448
-0.5729,0.0966,0.8477,-0.77,-2.31,1.26,0,439
-0.5724,0.0937,0.8477,-0.42,-2.1,1.4,12,445
-0.5724,0.0991,0.8467,-0.21,-2.73,0.91,6,448
-0.5714,0.0981,0.8462,-0.49,-2.45,1.12,8,439
-0.5734,0.0952,0.8481,-0.42,-2.31,1.05,8,439
-0.5714,0.0966,0.8462,-0.49,-2.52,1.05,8,447
-0.5729,0.0986,0.8442,-0.42,-2.73,1.19,5,448
-0.571,0.0956,0.8457,-0.28,-2.66,0.84,8,445
-0.5729,0.0971,0.8472,-0.42,-2.52,1.19,3,439
-0.5714,0.0976,0.8491,-0.49,-1.96,1.19,8,446
-0.57,0.0937,0.8472,-0.49,-2.31,1.4,7,438
-0.568,0.0966,0.8486,-0.42,-2.45,1.05,4,446
-0.5724,0.0961,0.8457,-0.63,-2.52,1.26,9,448
-0.5719,0.0947,0.8467,-0.28,-2.1,1.47,6,440
-0.5739,0.0976,0.8452,-0.91,-2.66,1.33,0,442
-0.5754,0.0966,0.8462,-0.42,-2.17,1.26,8,443
-0.57,0.0947,0.8447,-0.21,-2.66,1.05,6,442
-0.5714,0.0956,0.8481,-0.14,-2.59,1.05,9,448
-0.5734,0.0981,0.8486,-0.21,-2.52,1.33,4,446
-0.5695,0.0981,0.8477,-0.7,-2.45,1.33,5,445
-0.5705,0.0952,0.8481,-0.77,-2.45,1.19,10,446
-0.5719,0.0966,0.8477,-0.28,-2.52,1.19,4,449
-0.5705,0.0996,0.8438,-0.56,-2.45,1.33,5,448
-0.5695,0.0981,0.8472,-0.21,-2.31,1.12,6,450
-0.5724,0.0971,0.8457,-0.77,-2.24,1.33,3,445
-0.5744,0.0966,0.8491,-0.35,-2.31,0.98,6,445
-0.5719,0.0966,0.8442,-0.42,-2.45,1.4,9,445
-0.571,0.0971,0.8438,-0.77,-2.38,1.12,5,456
-0.5724,0.0976,0.8477,-0.49,-2.17,1.26,7,454
-0.5685,0.0956,0.8481,-0.35,-2.45,1.12,7,449
-0.5685,0.0971,0.8462,-0.14,-2.52,0.91,5,451
-0.571,0.0961,0.8481,-0.42,-2.59,0.91,8,450
-0.5719,0.0961,0.8462,-0.21,-2.24,1.12,5,451
-0.5714,0.0966,0.8467,-0.35,-2.59,0.98,3,451
-0.5719,0.0952,0.8481,-0.42,-2.31,1.26,7,456
-0.5724,0.0971,0.8467,-0.35,-2.8,0.91,2,451
-0.5719,0.0966,0.8457,-0.49,-2.52,1.05,7,456
-0.5695,0.0942,0.8462,-0.63,-2.24,1.33,8,459
-0.5714,0.0952,0.8491,-0.49,-2.38,1.12,8,456
-0.571,0.0976,0.8413,-0.63,-2.17,1.4,4,454
-0.569,0.0947,0.8491,-0.49,-2.17,0.98,8,456
-0.5719,0.0971,0.8477,-0.84,-2.52,1.12,8,451
-0.5714,0.0976,0.8472,-0.56,-2.52,1.05,8,447
-0.5714,0.0971,0.8481,-0.28,-2.52,1.05,9,448
-0.5714,0.0952,0.8467,-0.49,-2.31,1.19,12,448
-0.5719,0.0932,0.8486,-0.49,-2.31,1.19,8,447
-0.5705,0.0976,0.8472,-0.42,-2.31,1.12,7,446
-0.5729,0.0976,0.8481,-0.42,-2.38,1.19,6,440
-0.5719,0.0942,0.8472,-0.35,-2.31,1.12,5,442
-0.5739,0.0986,0.8457,-0.35,-2.45,0.91,12,440
-0.569,0.0971,0.8506,-0.63,-2.31,1.19,7,439
-0.5729,0.0956,0.8447,-0.35,-2.52,0.91,6,444
-0.571,0.0981,0.8472,-0.56,-2.1,1.26,8,441
-0.571,0.0966,0.8481,-0.56,-2.38,1.19,7,441
-0.5719,0.0956,0.8491,-0.49,-2.52,1.05,11,444
-0.5705,0.0942,0.8452,-0.28,-1.82,1.05,3,438
-0.5724,0.0966,0.8452,-0.28,-2.38,1.19,7,435
-0.5729,0.0942,0.8472,-0.42,-2.38,1.26,7,435
-0.5714,0.0952,0.8467,-0.42,-2.45,1.05,8,435
-0.5729,0.0996,0.8457,-0.14,-2.52,0.91,5,435
-0.5719,0.0971,0.8462,-0.77,-2.17,1.33,6,436
-0.5695,0.0942,0.8481,-0.56,-2.38,1.05,5,437
-0.569,0.0937,0.8457,-0.42,-2.24,1.12,2,432
-0.571,0.0942,0.8418,-0.49,-1.68,1.26,8,431
-0.569,0.0947,0.8467,-0.56,-2.24,1.26,3,424
-0.5744,0.0986,0.8428,-0.42,-2.45,1.19,6,429
-0.5714,0.0952,0.8467,-0.77,-2.24,1.12,7,420
-0.5734,0.0927,0.8491,-0.42,-2.17,1.05,7,430
-0.5724,0.0961,0.8472,-0.49,-2.45,1.12,10,424
-0.5724,0.0932,0.8457,-0.56,-2.17,1.05,7,423
-0.5729,0.0981,0.8486,-0.42,-2.1,1.19,8,419
-0.571,0.0991,0.8447,-0.21,-2.24,1.26,7,419
-0.5714,0.0903,0.8457,-0.21,-2.1,1.12,5,415
-0.5729,0.0947,0.8428,-0.28,-2.45,0.91,12,414
-0.5705,0.0952,0.8462,-0.49,-2.1,1.12,16,416
-0.5729,0.0986,0.8442,-0.42,-2.66,0.98,9,409
-0.5724,0.0952,0.8472,-0.42,-2.38,1.19,3,408
-0.5695,0.0922,0.8491,-0.56,-2.31,1.19,8,408
-0.5734,0.0971,0.8467,-0.35,-2.59,0.98,8,404
-0.5724,0.0966,0.8462,-0.28,-2.52,1.05,4,403
-0.5734,0.0952,0.8452,-0.56,-2.31,1.26,7,411
-0.5714,0.0952,0.8423,-0.42,-2.38,1.26,6,410
-0.5729,0.0942,0.8457,-0.56,-2.24,1.4,7,412
-0.5734,0.0966,0.8457,-0.35,-2.87,0.91,5,406
-0.5729,0.0961,0.8462,-0.49,-2.45,1.26,7,411
-0.5734,0.0947,0.8447,-0.21,-2.59,1.05,8,409
-0.5714,0.0942,0.8472,-0.42,-2.45,0.98,6,414
-0.5705,0.0952,0.8462,-0.35,-2.45,1.19,10,415
-0.5714,0.0991,0.8472,-0.56,-2.1,1.47,9,416
-0.5749,0.0976,0.8467,-0.42,-2.24,0.98,7,415
-0.5758,0.0956,0.8438,-0.42,-2.31,1.19,9,415
-0.5754,0.0956,0.8462,-0.63,-2.73,0.98,3,421
-0.57,0.0932,0.8447,-0.49,-2.24,1.26,6,423
-0.5734,0.0952,0.8477,-0.7,-2.38,1.12,8,418
-0.5714,0.0976,0.8457,-0.7,-2.24,1.19,10,424
-0.5729,0.0966,0.8457,-0.84,-2.1,1.68,8,423
-0.5739,0.0996,0.8452,-0.63,-2.1,1.26,11,420
-0.571,0.0956,0.8447,-0.28,-2.52,1.19,8,423
-0.5729,0.0927,0.8452,-0.28,-2.73,1.05,12,423
-0.5724,0.0966,0.8472,-0.56,-2.17,1.05,11,423
-0.5719,0.0976,0.8462,-0.63,-2.17,1.33,8,426
-0.571,0.0961,0.8467,-0.56,-2.38,1.26,6,430
-0.571,0.0952,0.8442,-0.56,-2.59,1.26,5,431
-0.5719,0.0952,0.8467,-0.56,-2.52,0.91,7,430
-0.5739,0.0961,0.8486,-0.56,-2.1,1.12,6,433
-0.5729,0.0961,0.8442,-0.42,-2.31,0.91,6,431
-0.5729,0.0971,0.8462,-0.91,-1.96,1.54,8,433
-0.5734,0.0942,0.8477,-0.35,-2.31,1.05,8,432
-0.5724,0.0956,0.8481,-0.35,-2.17,1.19,7,433
-0.5744,0.0976,0.8472,-0.35,-2.66,1.19,7,436
-0.5773,0.0893,0.8452,-0.35,-2.38,0.98,6,432
-0.57,0.0991,0.8452,-0.56,-2.24,1.33,6,436
-0.5739,0.0927,0.8462,-0.21,-2.31,1.33,8,435
-0.57,0.0937,0.8462,-0.49,-2.31,1.19,9,434
-0.5729,0.0971,0.8477,-0.84,-2.45,1.47,8,433
-0.5714,0.0952,0.8477,-0.49,-2.59,0.91,10,437
-0.5724,0.0966,0.8457,-0.63,-1.89,1.4,14,444
-0.5729,0.0956,0.8496,-0.49,-2.52,1.12,6,440
-0.5714,0.0961,0.8462,-0.42,-2.45,0.91,3,435
-0.571,0.0956,0.8481,-0.42,-2.03,1.12,8,439
-0.5695,0.0961,0.8428,-0.63,-2.31,1.4,10,439
-0.5729,0.0937,0.8472,-0.49,-2.38,1.12,10,440
-0.571,0.0961,0.8501,-0.49,-2.52,0.98,10,434
-0.5724,0.0961,0.8457,-0.7,-2.17,1.19,5,434
-0.5705,0.0937,0.8477,-0.49,-2.24,1.12,9,434
-0.5749,0.0947,0.8481,-0.56,-2.24,1.19,8,441
-0.57,0.0966,0.8486,-0.42,-2.24,0.98,7,431
-0.5705,0.0961,0.8452,-0.42,-2.45,1.05,8,436
-0.5719,0.0932,0.8462,-0.28,-2.38,1.19,14,431
-0.5714,0.0971,0.8457,-0.84,-2.31,1.19,9,437
-0.5719,0.0981,0.8477,-0.49,-2.38,1.12,3,431
-0.5719,0.0947,0.8457,-0.56,-2.45,1.05,5,430
-0.5714,0.0937,0.8442,-0.14,-2.38,1.33,9,437
-0.5695,0.0981,0.8447,-0.77,-2.38,1.47,8,434
-0.5734,0.0942,0.8452,-0.35,-2.31,1.4,10,431
-0.5729,0.0932,0.8467,-0.56,-2.31,1.4,12,430
-0.5739,0.0952,0.8496,-0.49,-2.24,1.12,8,429
-0.5714,0.0956,0.8467,-0.49,-1.96,1.4,7,429
-0.5724,0.0981,0.8447,-0.49,-2.59,1.33,7,431
-0.5719,0.0966,0.8501,-0.77,-2.52,1.05,7,427
-0.5719,0.0971,0.8496,-0.42,-2.38,1.05,7,429
-0.5724,0.0961,0.8457,-0.56,-2.38,1.05,9,423
-0.5724,0.0947,0.8472,-0.21,-2.45,1.33,6,425
-0.5729,0.0971,0.8481,-0.42,-2.17,1.26,7,428
-0.5724,0.0966,0.8481,-0.42,-2.45,1.12,3,434
-0.5744,0.0976,0.8442,-0.42,-2.52,1.05,8,430
-0.5724,0.0947,0.8481,-0.35,-2.52,0.98,0,429
-0.5695,0.0956,0.8486,-0.35,-2.52,1.26,6,425
-0.5744,0.0981,0.8457,-0.56,-2.45,1.4,3,431
-0.5714,0.0952,0.8481,-0.56,-2.24,1.33,4,436
-0.571,0.0961,0.8438,-0.35,-2.31,1.19,5,430
-0.5734,0.0947,0.8491,-0.35,-2.45,1.12,16,431
-0.5744,0.0971,0.8467,-0.49,-2.24,1.33,9,431
-0.5739,0.0971,0.8462,-0.49,-2.59,1.19,9,438
-0.5705,0.0927,0.8477,-0.28,-2.52,0.98,11,440
-0.5739,0.0956,0.8486,-0.56,-2.31,1.26,9,432
-0.5695,0.0961,0.8467,-0.56,-2.52,1.26,5,433
-0.5724,0.0942,0.8496,-0.49,-2.24,1.33,7,431
-0.5724,0.0932,0.8477,-0.49,-2.59,1.12,10,432
-0.5729,0.0952,0.8442,-0.35,-2.59,1.05,12,431
-0.57,0.0976,0.8486,-0.35,-2.73,0.91,7,436
-0.5729,0.0942,0.8486,-0.42,-2.31,1.26,8,435
-0.5739,0.0966,0.8442,-0.77,-2.38,1.26,8,436
-0.5714,0.0947,0.8452,-0.42,-2.38,1.19,7,433
-0.5729,0.0971,0.8477,-1.05,-2.38,1.68,4,437
-0.5749,0.0966,0.8472,-0.56,-2.45,1.19,13,433
-0.57,0.0971,0.8457,-0.35,-2.38,1.12,7,435
-0.5729,0.0976,0.8477,-0.28,-2.59,1.05,3,431
-0.5671,0.0947,0.8462,-0.14,-2.52,0.84,8,436
-0.5724,0.0942,0.8481,-0.35,-2.31,0.91,10,431
-0.5724,0.0947,0.8491,-0.14,-2.45,0.63,7,430
-0.5724,0.0942,0.8452,-0.28,-2.38,1.19,5,432
-0.57,0.0952,0.8467,-0.21,-2.38,0.98,5,436
-0.5729,0.0976,0.8457,-0.63,-2.17,1.33,6,437
-0.5705,0.0937,0.8442,-0.63,-2.17,1.4,13,434
-0.571,0.0942,0.8491,-0.28,-2.66,0.98,3,431
-0.5749,0.0956,0.8486,-0.28,-2.45,0.91,8,438
-0.571,0.0956,0.8477,-0.42,-2.45,1.12,9,437
-0.5714,0.0937,0.8457,-0.42,-2.45,1.19,10,431
-0.5714,0.0952,0.8481,-0.28,-2.59,0.98,8,438
-0.5724,0.0966,0.8447,-0.42,-2.59,1.12,8,437
-0.5719,0.0947,0.8462,-0.56,-2.31,1.26,3,438
-0.5705,0.0952,0.8457,-0.35,-2.38,1.12,10,439
-0.571,0.0956,0.8486,-0.35,-2.17,1.33,5,435
-0.571,0.0971,0.8501,-0.56,-2.45,1.19,9,436
-0.571,0.0942,0.8462,-0.49,-2.31,1.26,8,441
-0.5754,0.0976,0.8472,-0.49,-2.59,1.12,12,438
-0.5739,0.0981,0.8481,-0.49,-2.45,1.19,9,440
-0.5675,0.0947,0.8452,-0.7,-2.59,1.19,9,438
-0.5744,0.0956,0.8433,-0.63,-1.82,1.19,6,433
-0.57,0.0942,0.8467,-0.63,-2.31,1.4,9,439
-0.5695,0.0966,0.8481,-0.28,-2.31,1.33,10,438
-0.571,0.0961,0.8481,0.07,-2.59,0.84,6,440
-0.5739,0.0956,0.8472,-0.56,-2.31,1.19,7,433
-0.5729,0.0952,0.8486,-0.14,-2.52,0.77,9,439
-0.5705,0.0947,0.8462,-0.42,-2.45,0.91,0,440
-0.5719,0.0961,0.8486,-0.49,-2.66,0.91,7,435
-0.5714,0.0971,0.8467,-0.35,-2.45,1.19,4,441
-0.5705,0.0966,0.8467,-0.63,-2.24,1.19,6,445
-0.5666,0.0956,0.8481,-0.63,-2.31,1.26,12,448
-0.5714,0.0976,0.8457,-0.7,-2.24,1.33,7,441
-0.5734,0.0966,0.8501,-0.28,-2.73,0.84,2,439
-0.5739,0.0961,0.8472,-0.21,-2.45,1.19,4,446
-0.5724,0.0956,0.8457,-0.49,-2.59,1.05,6,441
-0.5714,0.0961,0.8452,-0.28,-2.59,0.98,8,443
-0.5734,0.0966,0.8452,-0.14,-2.87,1.12,8,444
-0.5724,0.0981,0.8467,-0.42,-2.45,1.05,0,446
-0.5714,0.0947,0.8481,-0.42,-2.38,0.98,10,445
-0.5724,0.0952,0.8442,-0.21,-2.45,1.19,6,444
-0.571,0.0956,0.8481,-0.21,-2.52,0.98,8,444
-0.5714,0.0966,0.8486,-0.56,-2.45,1.05,5,447
-0.571,0.0956,0.8452,-0.7,-1.82,1.26,7,447
-0.5705,0.0981,0.8462,-0.35,-2.45,1.12,6,445
-0.5705,0.0966,0.8501,-0.56,-2.45,1.33,7,448
-0.569,0.0971,0.8452,-0.35,-2.24,1.12,7,449
-0.5729,0.0961,0.8486,-0.28,-2.24,1.19,4,448
-0.5739,0.0961,0.8467,-0.49,-2.45,1.19,1,444
-0.5714,0.0966,0.8452,-0.42,-2.38,1.05,3,441
-0.5724,0.0937,0.8486,-0.35,-2.38,0.98,4,443
-0.5705,0.0961,0.8452,-0.42,-2.31,1.19,5,448
-0.571,0.1049,0.8472,-0.21,-2.52,1.12,8,439
-0.5714,0.0869,0.8457,-0.07,-2.52,1.05,3,443
-0.57,0.0966,0.8472,-0.56,-2.24,1.05,0,441
-0.5729,0.0966,0.8472,-0.28,-2.38,1.05,8,444
-0.5749,0.0952,0.8486,-0.35,-2.31,0.91,3,442
-0.5724,0.0956,0.8477,-0.49,-2.38,1.26,12,440
-0.5724,0.0952,0.8438,-0.49,-2.31,1.19,8,443
-0.5739,0.0947,0.8457,-0.42,-2.45,0.98,8,438
-0.5714,0.0942,0.8481,-0.07,-2.66,0.63,8,439
-0.5719,0.0971,0.8462,-0.42,-2.24,1.33,10,444
-0.5734,0.0956,0.8477,-0.35,-2.59,0.91,8,435
-0.5695,0.0956,0.8472,-0.42,-2.24,1.05,12,435
-0.5705,0.0952,0.8481,-0.21,-2.45,0.98,6,431
-0.5734,0.0971,0.8496,-0.35,-2.17,1.19,9,434
-0.571,0.0961,0.8477,-0.42,-2.66,1.12,0,431
-0.569,0.0971,0.8486,-0.77,-2.17,1.33,10,432
-0.571,0.0937,0.8496,-0.28,-2.52,0.7,8,430
-0.5719,0.0956,0.8452,-0.42,-2.17,1.26,9,428
-0.5714,0.0952,0.8452,-0.56,-2.24,1.33,6,427
-0.5714,0.0952,0.8447,-0.63,-2.45,1.26,10,421
-0.5724,0.0971,0.8452,-0.49,-2.31,1.05,9,425
-0.5734,0.0922,0.8481,-0.21,-2.45,1.05,9,423
-0.5705,0.0947,0.8462,-0.63,-2.03,1.47,8,424
-0.5744,0.0961,0.8486,-0.56,-2.24,1.47,7,424
-0.5729,0.0942,0.8467,-0.49,-2.24,1.12,9,422
-0.5734,0.0942,0.8447,-0.56,-2.59,1.19,12,424
-0.569,0.0971,0.8462,-0.49,-2.59,1.05,7,425
-0.5729,0.0961,0.8452,-0.42,-2.73,0.91,8,419
-0.5734,0.0927,0.8452,-0.56,-2.17,1.47,14,420
-0.571,0.0971,0.8462,-0.21,-2.38,0.84,14,424
-0.5695,0.0956,0.8467,-0.28,-2.38,0.91,14,424
-0.5724,0.0961,0.8477,-0.63,-2.31,1.54,10,419
-0.5714,0.0971,0.8467,-0.14,-2.31,0.98,7,423
-0.5724,0.0942,0.8472,-0.49,-2.66,1.12,3,426
-0.5714,0.0947,0.8477,-0.63,-2.24,1.26,6,423
-0.5729,0.0956,0.8447,-0.56,-1.89,1.4,7,425
-0.5714,0.0947,0.8472,-0.42,-2.38,1.26,16,427
-0.571,0.0961,0.8481,-0.56,-2.24,1.26,10,428
-0.5729,0.0971,0.8477,-0.77,-2.31,1.12,8,424
-0.5739,0.0956,0.8442,-0.56,-2.38,1.26,8,423
-0.5719,0.0952,0.8438,-0.77,-2.52,1.19,12,420
-0.5724,0.0956,0.8491,-0.49,-2.73,1.05,10,429
-0.5739,0.0952,0.8467,-0.42,-2.59,0.91,7,422
-0.5739,0.0956,0.8462,-0.49,-2.31,1.47,7,424
-0.571,0.0927,0.8477,-0.21,-2.45,0.98,13,430
-0.5734,0.0927,0.8452,-0.35,-2.31,1.26,12,432
-0.5724,0.0961,0.8477,-0.21,-2.87,0.84,7,424
-0.5724,0.0971,0.8467,-0.35,-2.24,1.19,9,428
-0.5729,0.0971,0.8457,-0.42,-2.38,1.26,8,431
-0.5695,0.0981,0.8462,-0.35,-2.66,0.98,8,427
-0.5734,0.0947,0.8442,-0.49,-2.52,1.12,5,430
-0.5719,0.0927,0.8477,-0.35,-2.52,1.05,6,433
-0.5695,0.0947,0.8467,-0.42,-2.24,1.19,3,431
-0.57,0.0956,0.8433,-0.56,-2.38,0.91,8,432
-0.5744,0.0961,0.8477,-0.7,-2.38,1.26,7,435
-0.5714,0.0956,0.8467,-0.35,-2.45,1.19,13,432
-0.5724,0.0937,0.8442,-0.35,-2.24,1.12,8,431
-0.5705,0.0981,0.8491,-0.49,-2.31,1.19,6,431
-0.571,0.0956,0.8496,-0.42,-2.45,1.12,4,434
-0.5724,0.0952,0.8477,-0.42,-2.52,1.19,4,432
-0.5734,0.0947,0.8428,-0.56,-2.1,1.33,6,432
-0.5705,0.0971,0.8452,-0.28,-2.59,0.98,6,441
-0.5714,0.0937,0.8486,-0.21,-2.24,0.98,11,432
-0.57,0.0976,0.8467,-0.56,-2.52,1.33,8,435
-0.5729,0.0937,0.8462,-0.63,-2.66,1.19,6,435
-0.5724,0.0937,0.8472,-0.7,-2.38,1.19,3,429
-0.569,0.0947,0.8477,-0.42,-2.59,0.84,10,431
-0.5729,0.0952,0.8452,-0.28,-2.59,1.12,5,431
-0.5729,0.0952,0.8467,-0.14,-2.52,1.05,7,435
-0.57,0.0966,0.8501,-0.56,-2.38,1.19,12,430
-0.5695,0.0966,0.8477,-0.42,-2.31,1.4,5,438
-0.5714,0.0956,0.8481,-0.35,-2.45,1.19,10,436
-0.571,0.0961,0.8472,-0.42,-2.38,1.12,1,440
-0.5724,0.0981,0.8486,-0.49,-2.52,1.19,3,433
-0.5695,0.0952,0.8462,-0.77,-2.52,1.4,2,439
-0.5685,0.0996,0.8447,-0.63,-2.31,1.26,8,435
-0.5719,0.0986,0.8477,-0.56,-2.59,1.05,6,435
-0.5714,0.0956,0.8481,-0.7,-2.31,1.4,4,439
-0.569,0.0956,0.8481,-0.63,-2.17,1.19,8,442
-0.57,0.0937,0.8462,-0.42,-2.52,1.19,7,435
-0.5734,0.0986,0.8462,-0.49,-2.66,1.05,7,439
-0.5705,0.0961,0.8477,-0.42,-2.31,1.12,7,440
-0.571,0.0956,0.8491,-0.49,-2.38,1.12,8,444
-0.5714,0.0956,0.8501,-0.28,-2.45,1.12,6,441
-0.5719,0.0956,0.8472,-0.56,-2.38,1.12,8,438
-0.569,0.0937,0.8442,-0.49,-2.38,1.26,3,440
-0.5758,0.0942,0.8467,-0.42,-2.45,1.19,8,435
-0.5739,0.0981,0.8481,-0.21,-2.66,0.98,4,439
-0.5705,0.0908,0.8452,-0.35,-2.31,0.98,6,437
-0.5695,0.0947,0.8506,-0.77,-2.31,1.12,5,435
-0.5705,0.0952,0.8438,-0.56,-2.38,1.4,6,440
-0.5705,0.0966,0.8491,-0.35,-2.73,1.26,9,441
-0.5719,0.0947,0.8462,-0.21,-2.45,0.98,7,437
-0.571,0.0947,0.8447,-0.35,-2.31,1.19,7,443
-0.5724,0.0971,0.8462,-0.35,-2.52,0.91,4,442
-0.5724,0.0952,0.8442,-0.42,-2.38,1.33,0,442
-0.5714,0.0937,0.8477,-0.14,-2.59,0.91,7,440
-0.57,0.0961,0.8457,-0.63,-2.17,1.47,2,437
-0.5768,0.0908,0.8452,0.14,-2.31,1.26,0,441
-0.5724,0.0922,0.8457,-0.35,-2.66,1.19,8,439
-0.57,0.0981,0.8472,-0.14,-2.52,0.77,6,441
-0.5734,0.0956,0.8491,-0.7,-2.52,1.4,3,443
-0.571,0.0952,0.8467,-0.35,-2.52,0.98,3,444
-0.571,0.0966,0.8467,-0.35,-2.31,1.12,5,445
-0.5714,0.0947,0.8477,-0.49,-2.45,1.12,12,445
-0.57,0.0986,0.8486,-0.56,-2.24,1.33,8,448
-0.5729,0.0952,0.8501,-0.21,-2.66,0.84,6,443
-0.5671,0.0961,0.8496,-0.77,-2.45,1.26,5,445
-0.5695,0.0966,0.8472,-0.21,-2.8,0.91,12,440
-0.5729,0.0947,0.8486,-0.28,-2.66,0.77,9,448
-0.569,0.0942,0.8477,-0.42,-2.31,1.19,9,447
-0.568,0.0952,0.8457,-0.49,-2.17,1.12,7,452
-0.57,0.0966,0.8491,-0.35,-2.31,1.19,3,445
-0.5734,0.0976,0.8472,-0.63,-2.45,0.98,9,447
-0.5714,0.0961,0.8477,-0.56,-2.17,1.12,6,449
-0.5729,0.0976,0.8486,-0.07,-2.52,1.12,5,446
-0.5734,0.0917,0.8481,-0.42,-2.31,1.26,8,449
-0.5705,0.0966,0.8442,-0.63,-2.59,1.05,8,449
-0.5719,0.0947,0.8477,-0.35,-2.52,1.05,6,442
-0.57,0.0956,0.8477,-0.56,-2.38,1.19,6,448
-0.57,0.0947,0.8501,-0.21,-2.66,0.91,4,446
-0.5714,0.0961,0.8462,-0.35,-2.45,1.26,8,443
-0.5714,0.0956,0.8467,-0.49,-2.66,1.4,9,443
-0.5714,0.0947,0.8486,-0.35,-2.45,1.19,12,443
-0.5729,0.0952,0.8457,-0.49,-1.96,1.26,11,446
-0.569,0.0937,0.8477,-0.35,-2.31,0.98,5,445
-0.5734,0.0956,0.8457,-0.49,-2.45,1.05,9,448
-0.5749,0.0937,0.8462,-0.42,-2.45,1.12,6,443
-0.5729,0.0956,0.8486,-0.63,-2.66,1.26,10,445
-0.5588,0.0761,0.8394,-2.38,-1.75,1.96,8,450
-0.5695,0.1039,0.8501,-0.7,-2.17,0.7,9,447
-0.5695,0.0986,0.8467,-0.35,-2.52,1.19,9,448
-0.57,0.0932,0.8481,-0.14,-2.45,1.05,8,449
-0.571,0.0947,0.8501,-0.49,-2.38,1.19,1,453
-0.5719,0.0971,0.8481,-0.49,-2.31,1.19,8,451
-0.569,0.0927,0.8477,-0.56,-2.38,1.19,8,453
-0.5729,0.0961,0.8496,0,-2.66,0.98,0,447
-0.5675,0.0922,0.8442,-0.42,-2.38,1.33,1,453
-0.5685,0.1015,0.852,-0.7,-2.31,1.4,9,450
-0.5695,0.0976,0.8467,-0.42,-2.52,1.19,6,449
-0.571,0.0961,0.8472,-0.56,-2.45,1.05,8,453
-0.5705,0.0947,0.8467,-0.49,-2.31,1.05,7,456
-0.57,0.0971,0.8467,-0.49,-2.59,1.19,3,457
-0.57,0.0956,0.8477,-0.42,-2.45,1.19,11,452
-0.5729,0.0966,0.8472,-0.42,-2.31,1.19,9,460
-0.5695,0.0956,0.8462,-0.49,-2.59,1.19,7,456
-0.569,0.0966,0.8477,-0.56,-2.31,1.26,8,456
-0.5719,0.0986,0.8486,-0.42,-2.45,1.33,8,451
-0.5729,0.0937,0.8447,-0.21,-2.38,0.91,5,455
-0.5714,0.0961,0.8496,-0.56,-2.31,1.4,0,453
-0.5714,0.0947,0.8472,-0.91,-2.38,1.61,2,457
-0.5744,0.0961,0.8452,-0.07,-2.45,1.05,0,464
-0.57,0.0952,0.8486,-0.49,-2.24,1.05,7,454
-0.5695,0.0961,0.8472,-0.35,-2.17,1.12,9,456
-0.5705,0.0947,0.8452,-0.56,-2.31,1.33,9,449
-0.569,0.0961,0.8452,-0.49,-2.38,1.26,3,455
-0.5714,0.0956,0.8462,-0.56,-2.59,1.26,3,453
-0.5729,0.0937,0.8477,-0.35,-2.45,0.84,3,454
-0.5714,0.0942,0.8501,-0.42,-2.31,1.26,13,460
-0.5734,0.0908,0.8457,-0.21,-2.66,1.05,7,456
-0.5719,0.0942,0.8481,-0.56,-2.52,0.77,9,456
-0.57,0.0981,0.8501,-0.7,-2.45,0.91,2,456
-0.569,0.0981,0.8525,-0.49,-2.45,1.33,12,455
-0.571,0.0947,0.8477,-0.49,-2.38,0.98,4,455
-0.5695,0.0947,0.8447,-0.42,-2.52,1.19,7,455
-0.5705,0.0981,0.8496,-0.35,-2.45,1.12,8,453
-0.571,0.0971,0.8472,-0.56,-2.59,1.26,0,458
-0.5695,0.0961,0.8477,-0.14,-2.38,0.98,2,455
-0.57,0.0952,0.8447,-0.49,-2.38,1.26,10,453
-0.5724,0.0937,0.8442,-0.42,-2.52,1.19,9,455
-0.5705,0.0942,0.8486,-0.28,-2.45,1.12,8,452
-0.5719,0.0961,0.8472,-0.42,-2.52,1.19,5,457
-0.5714,0.0981,0.8496,-0.63,-2.59,1.12,5,458
-0.5714,0.0952,0.8486,-0.56,-2.31,1.12,0,456
-0.5714,0.0947,0.8472,-0.35,-2.66,0.98,10,461
-0.5724,0.0971,0.8496,-0.35,-2.73,0.98,8,455
-0.57,0.0947,0.8472,-0.35,-2.66,0.91,5,461
-0.5729,0.0986,0.8481,-0.56,-2.31,1.26,3,457
-0.57,0.0937,0.8472,-0.84,-2.1,1.47,7,455
-0.5705,0.0942,0.8477,-0.49,-2.45,1.12,10,457
-0.5714,0.0956,0.8447,-0.28,-2.38,1.05,3,464
-0.5666,0.0937,0.8467,-0.14,-2.31,0.98,10,455
-0.5695,0.0966,0.8477,-0.42,-2.8,1.05,1,458
-0.5724,0.0961,0.8462,-0.14,-2.52,0.91,6,457
-0.5724,0.0952,0.8501,-0.49,-2.59,1.19,8,455
-0.5714,0.0966,0.8477,0.14,-2.59,0.63,4,462
-0.5724,0.0976,0.8486,-0.7,-2.24,1.47,7,460
-0.5695,0.0952,0.8477,-0.42,-2.45,1.26,7,455
-0.5705,0.0971,0.8472,-0.84,-2.73,1.05,9,456
-0.569,0.0952,0.8472,-0.91,-1.96,1.12,2,457
-0.569,0.0971,0.8477,-0.07,-2.38,0.7,7,457
-0.568,0.0937,0.8481,-0.21,-2.24,1.12,8,454
-0.571,0.0952,0.8467,-0.42,-2.38,1.33,0,456
-0.568,0.0952,0.8452,-0.07,-2.52,0.98,9,459
-0.5734,0.0986,0.8467,-0.21,-2.52,0.77,4,456
-0.5714,0.0976,0.8467,-1.12,-2.38,1.61,7,457
-0.57,0.0971,0.8472,-0.42,-2.38,1.4,7,455
-0.5729,0.0956,0.8477,-0.42,-2.38,0.98,3,460
-0.57,0.0956,0.8472,-0.63,-2.38,1.26,9,449
-0.571,0.0966,0.8481,-0.35,-2.59,1.33,5,458
-0.5739,0.0961,0.8477,-0.35,-2.52,0.98,6,456
-0.57,0.0971,0.8472,-0.49,-2.38,1.4,10,457
-0.571,0.0942,0.8472,-0.35,-2.52,1.05,16,457
-0.569,0.0956,0.8496,-0.49,-2.52,1.19,8,447
-0.5695,0.0903,0.8438,-0.42,-2.38,1.12,6,457
-0.571,0.0952,0.8472,-0.49,-2.59,0.84,10,460
-0.5705,0.0942,0.8477,-0.42,-2.66,1.26,4,457
-0.5705,0.0952,0.8506,-0.49,-2.17,1.19,3,457
-0.5695,0.0971,0.8496,-0.84,-2.38,1.26,5,451
-0.5695,0.0952,0.8496,-0.21,-2.52,1.19,3,455
-0.569,0.0956,0.8462,0.07,-2.66,0.77,3,458
-0.5695,0.0937,0.8467,-0.28,-2.38,0.98,10,455
-0.5714,0.0981,0.8442,-0.63,-2.45,0.98,3,455
-0.57,0.0961,0.8491,-0.7,-2.38,1.19,3,458
-0.568,0.0952,0.8472,-0.63,-2.52,1.26,4,456
-0.5719,0.0966,0.8462,-0.56,-2.52,1.12,7,459
-0.57,0.0942,0.8457,-0.7,-2.24,1.19,0,457
-0.57,0.0961,0.8486,-0.42,-2.45,1.33,10,460
-0.5685,0.0956,0.8491,-0.56,-2.45,1.19,3,458
-0.5705,0.0971,0.8472,-0.28,-2.38,1.4,7,463
-0.5714,0.0942,0.8462,-0.49,-2.52,1.12,10,461
-0.5719,0.0976,0.8491,-0.28,-2.52,1.19,12,457
-0.571,0.0961,0.8472,-0.42,-2.52,1.26,8,465
-0.5705,0.0961,0.8496,-0.91,-2.59,1.47,6,464
-0.5685,0.0971,0.8472,-0.42,-2.52,1.05,4,455
-0.571,0.0956,0.8486,-0.56,-2.38,1.19,4,468
-0.5724,0.0961,0.8452,-0.42,-2.73,1.12,7,472
-0.5724,0.0952,0.8477,-0.56,-2.31,1.26,2,464
-0.5705,0.0927,0.8506,-0.63,-2.1,1.33,8,463
-0.5729,0.0961,0.8472,-0.63,-2.45,1.12,0,463
-0.569,0.0971,0.8481,-0.28,-2.59,0.84,8,465
-0.5714,0.0942,0.8481,-0.42,-2.31,1.4,5,466
-0.57,0.0966,0.8491,-0.63,-2.45,1.26,3,468
-0.5695,0.0952,0.8442,-0.42,-2.59,1.12,6,461
-0.5724,0.0952,0.8457,-0.35,-2.38,1.05,4,463
-0.5719,0.0961,0.8481,-0.35,-2.31,1.19,11,461
-0.5729,0.0956,0.8477,-0.14,-2.31,0.84,6,465
-0.569,0.0937,0.8501,-0.28,-2.31,0.98,8,462
-0.5685,0.0991,0.8447,-0.49,-2.38,0.98,1,463
-0.5661,0.0947,0.854,-0.63,-2.24,1.26,5,461
-0.5734,0.0971,0.8447,-0.63,-2.66,1.33,3,464
-0.5705,0.0922,0.8457,-0.35,-2.59,1.12,7,461
-0.5729,0.0942,0.8472,-0.35,-2.66,1.05,7,461
-0.5685,0.0971,0.8501,-0.49,-2.24,1.05,2,460
-0.5695,0.0956,0.8486,-0.49,-2.24,1.4,4,461
-0.5729,0.0981,0.8477,-0.56,-2.38,1.47,8,464
-0.569,0.0942,0.8467,-0.56,-2.59,1.4,3,462
-0.5695,0.0976,0.8491,-0.42,-2.52,1.12,8,459
-0.571,0.0956,0.8477,-0.28,-2.45,1.19,7,459
-0.5695,0.0952,0.8447,-0.28,-2.38,1.12,7,462
-0.5695,0.0917,0.8481,-0.49,-2.31,1.33,5,464
-0.5714,0.0947,0.8457,-0.28,-2.52,0.91,7,459
-0.57,0.0947,0.8491,-0.21,-2.31,1.12,8,461
-0.5705,0.0952,0.8481,-0.56,-2.24,1.26,6,465
-0.5685,0.0956,0.8481,-0.49,-2.66,1.12,0,465
-0.5714,0.0966,0.8447,-0.7,-2.45,1.33,10,467
-0.5695,0.0966,0.8477,-0.63,-2.31,1.33,5,462
-0.5719,0.0961,0.8486,-0.35,-2.1,1.19,4,464
-0.57,0.0942,0.8477,-0.28,-2.59,1.05,9,464
-0.5695,0.0981,0.8467,-0.77,-2.17,1.12,12,461
-0.5729,0.0917,0.8477,0.84,-2.73,0.91,6,459
-0.57,0.0903,0.8491,-0.21,-2.59,0.84,9,463
-0.571,0.1,0.8462,-0.77,-2.17,1.19,3,465
-0.569,0.0956,0.8472,-0.21,-2.38,1.12,16,464
-0.5705,0.0961,0.8516,-0.56,-2.66,1.12,8,466
-0.5817,0.0922,0.8491,-1.12,-2.45,1.26,8,462
-0.571,0.0942,0.8428,-1.12,-2.31,1.12,6,470
-0.568,0.101,0.8472,-0.63,-2.31,1.12,4,464
-0.5719,0.0971,0.8506,-0.35,-2.45,1.26,9,468
-0.568,0.0976,0.8481,-0.07,-2.66,0.84,5,461
-0.569,0.0942,0.8511,-0.21,-2.66,1.19,8,469
-0.569,0.0961,0.8472,-0.42,-2.59,1.05,7,463
-0.57,0.0971,0.8496,-0.42,-2.66,1.05,6,472
-0.5724,0.0961,0.8477,-0.42,-2.8,1.19,7,473
-0.5705,0.0981,0.8472,-0.56,-2.52,1.26,4,471
-0.5714,0.0971,0.8477,-0.49,-2.45,1.19,0,469
-0.5666,0.0947,0.8481,0,-2.52,0.63,7,463
-0.5705,0.0966,0.8545,-0.77,-2.31,1.26,4,463
-0.5675,0.0976,0.8462,-0.56,-2.17,1.05,5,470
-0.57,0.0952,0.8501,-0.28,-2.59,0.91,8,467
-0.5705,0.0991,0.8472,-0.56,-2.03,1.26,13,467
-0.571,0.0952,0.8481,-0.56,-2.45,1.26,3,463
-0.5714,0.0952,0.8442,-0.14,-2.1,0.91,8,462
-0.569,0.0976,0.8477,-0.35,-2.38,0.91,4,467
-0.5695,0.0981,0.8496,-0.21,-2.45,0.91,8,463
-0.5685,0.0966,0.8486,-0.42,-2.52,1.05,8,467
-0.569,0.0966,0.8452,-0.42,-2.45,1.12,8,472
-0.5685,0.0976,0.8477,-0.49,-2.31,1.12,8,463
-0.5714,0.0981,0.8486,-0.56,-2.45,1.12,5,463
-0.569,0.0942,0.8477,-0.42,-2.52,1.05,8,469
-0.5724,0.0947,0.8467,-0.7,-2.31,1.19,10,469
-0.568,0.0981,0.8457,-0.77,-2.45,1.05,6,472
-0.5705,0.0971,0.8481,-0.35,-2.59,1.05,7,465
-0.5705,0.0976,0.8486,-0.14,-2.59,0.84,0,464
-0.5724,0.0961,0.8486,-0.63,-2.31,1.4,6,468
-0.5695,0.0991,0.8481,-0.35,-2.38,0.91,7,467
-0.5714,0.0966,0.8452,-0.35,-2.17,1.19,6,461
-0.5695,0.0971,0.8477,-0.49,-1.89,1.33,1,464
-0.5714,0.0927,0.8467,-0.21,-2.38,1.05,8,465
-0.5724,0.0937,0.8491,-0.56,-2.38,1.19,5,469
-0.569,0.0952,0.8462,-0.56,-2.03,1.33,5,462
-0.5705,0.0952,0.8516,-0.35,-2.31,1.19,8,463
-0.57,0.0961,0.8477,-0.7,-2.38,1.26,5,465
-0.57,0.0961,0.8491,-0.49,-2.45,1.19,4,466
-0.57,0.0961,0.8506,-0.21,-2.45,0.98,8,459
-0.5719,0.0947,0.8457,-0.35,-2.45,1.12,8,462
-0.5724,0.0952,0.8467,-0.7,-2.38,1.54,10,465
-0.569,0.0952,0.8491,-0.42,-2.17,1.19,8,466
-0.571,0.0937,0.8462,0,-2.45,1.05,7,465
-0.5734,0.0947,0.8486,-0.28,-2.52,0.98,8,462
-0.5724,0.0961,0.8457,-0.63,-2.52,1.33,1,455
-0.569,0.0961,0.8486,-0.56,-2.38,1.05,8,468
-0.5671,0.0956,0.8511,-0.35,-2.38,1.12,6,464
-0.5695,0.0991,0.8457,-0.42,-2.24,0.98,8,463
-0.5705,0.0976,0.8491,-0.42,-2.31,1.26,2,463
-0.5705,0.0976,0.8496,-0.84,-2.38,1.12,9,462
-0.569,0.0976,0.8511,-0.63,-2.24,1.12,8,464
-0.5719,0.0932,0.8467,-0.49,-2.17,1.4,6,466
-0.57,0.0956,0.8491,-0.56,-2.31,1.12,3,468
-0.571,0.0947,0.8486,-0.7,-2.38,1.4,7,463
-0.5724,0.0971,0.8496,-0.42,-2.31,1.19,0,468
-0.5675,0.0952,0.852,-0.42,-2.31,1.12,8,462
-0.569,0.0961,0.8501,-0.21,-2.73,1.12,0,465
-0.5695,0.0947,0.8462,-0.42,-2.1,1.26,7,465
-0.5719,0.0947,0.8486,-0.49,-2.45,1.05,6,472
-0.5705,0.0961,0.8477,-0.63,-2.31,1.4,6,463
-0.57,0.0961,0.8491,-0.49,-2.52,1.26,6,463
-0.5705,0.0971,0.8477,-0.84,-2.38,1.61,2,463
-0.5695,0.0942,0.8457,-0.56,-2.24,1.12,8,463
-0.5695,0.0971,0.8472,-0.14,-2.52,0.98,6,467
-0.569,0.0952,0.8496,-0.35,-2.31,1.19,0,466
-0.5685,0.0956,0.8467,-0.42,-2.31,1.05,3,463
-0.569,0.0976,0.8491,-0.91,-2.24,1.33,0,465
-0.571,0.0976,0.8472,-0.56,-2.59,1.19,7,466
-0.5675,0.0981,0.8477,-0.42,-2.31,1.05,4,464
-0.5705,0.0966,0.8477,-0.35,-2.24,1.26,10,467
-0.5685,0.0947,0.8477,-0.56,-2.38,1.26,10,467
-0.57,0.0966,0.8477,-0.56,-2.52,1.12,8,461
-0.57,0.0976,0.8491,-0.63,-2.17,1.26,5,467
-0.5714,0.0981,0.8486,-0.77,-2.52,1.05,6,469
-0.571,0.0942,0.8457,-0.56,-2.59,1.12,6,463
-0.5695,0.0976,0.8477,-0.63,-2.38,1.05,4,462
-0.5685,0.0956,0.8481,-0.28,-2.38,1.19,8,463
-0.5695,0.0947,0.8467,-0.49,-2.24,1.26,7,466
-0.5724,0.0976,0.8462,-0.35,-2.38,0.84,8,467
-0.571,0.0952,0.8501,-0.56,-2.38,1.12,0,469
-0.57,0.0976,0.8452,-0.49,-2.59,1.12,2,463
-0.5705,0.0976,0.8481,-0.56,-2.24,1.26,5,465
-0.5719,0.0966,0.8477,-0.49,-2.31,1.19,4,470
-0.5695,0.0961,0.8447,-0.21,-2.38,1.05,3,463
-0.5724,0.0952,0.8501,-0.63,-2.52,1.26,0,459
-0.57,0.0927,0.8477,-0.77,-2.17,1.33,8,467
-0.5695,0.0952,0.8491,-0.77,-2.38,1.54,7,466
-0.5719,0.0986,0.8486,-0.07,-2.52,0.91,7,468
-0.5714,0.0966,0.8477,-0.35,-2.45,1.05,7,464
-0.5705,0.0976,0.8511,-0.21,-2.45,0.98,0,466
-0.5705,0.0971,0.8472,-0.35,-2.52,1.12,8,469
-0.569,0.0961,0.8481,-0.21,-2.1,0.98,4,463
-0.569,0.0952,0.8501,-0.77,-2.45,1.4,7,468
-0.5714,0.0976,0.8472,-0.35,-2.59,0.98,2,463
-0.5705,0.0986,0.8501,-0.21,-2.52,0.7,5,470
-0.5695,0.0956,0.8467,-0.42,-2.38,0.91,0,463
-0.569,0.0947,0.8481,-0.49,-2.24,1.4,7,467
-0.5714,0.0947,0.8486,-0.63,-2.38,1.33,5,462
-0.5705,0.0966,0.8486,-0.56,-2.52,0.77,8,464
-0.57,0.0976,0.8486,-0.07,-2.52,0.84,3,463
-0.57,0.0971,0.8486,-0.49,-2.59,1.26,10,465
-0.57,0.0952,0.8506,-0.63,-2.1,1.19,5,468
-0.569,0.0966,0.8525,-0.42,-2.24,1.19,0,467
-0.5695,0.0956,0.8467,-0.35,-2.31,1.26,8,463
-0.5705,0.0956,0.8472,-0.63,-2.31,1.05,2,468
-0.571,0.0961,0.8491,-0.49,-2.17,1.4,5,465
-0.5685,0.0971,0.8477,-0.77,-2.17,1.54,9,468
-0.5695,0.0966,0.8511,-0.56,-2.17,1.26,6,468
-0.568,0.0966,0.8467,-0.28,-2.52,0.98,5,468
-0.5719,0.0961,0.8467,-0.42,-2.45,0.98,6,468
-0.568,0.0947,0.8486,-0.63,-2.31,1.26,6,472
-0.5685,0.0937,0.8496,-0.42,-2.17,1.33,6,473
-0.5695,0.0952,0.8462,-0.28,-2.31,1.26,5,469
-0.568,0.0947,0.8477,-0.49,-2.38,1.26,4,468
-0.5719,0.0952,0.8481,-0.14,-2.45,0.84,0,463
-0.5685,0.0956,0.8467,-0.49,-2.31,1.26,4,469
-0.5724,0.0956,0.8496,-0.49,-2.52,1.26,5,464
-0.5714,0.0976,0.8501,-0.56,-2.17,1.19,9,470
-0.5685,0.0966,0.8501,-0.28,-2.31,1.05,6,464
-0.5695,0.0947,0.8477,-0.42,-2.31,0.98,3,466
-0.571,0.0961,0.8481,-0.35,-2.31,1.26,2,464
-0.568,0.0961,0.8477,-0.35,-2.38,1.12,8,462
-0.5729,0.0942,0.8467,-0.56,-2.52,0.98,6,463
-0.5695,0.0976,0.8511,-0.49,-2.38,1.26,4,472
-0.5719,0.0961,0.8511,-0.63,-2.52,1.26,8,463
-0.5695,0.0952,0.8447,-0.42,-2.45,1.26,0,471
-0.571,0.0966,0.8501,-0.42,-2.24,1.26,6,462
-0.571,0.0961,0.8491,-0.35,-2.52,1.26,6,463
-0.5705,0.0961,0.8467,-0.56,-2.31,1.26,9,473
-0.5661,0.0986,0.8511,-0.42,-2.17,1.05,8,464
-0.5719,0.0937,0.8481,-0.63,-2.38,1.19,9,468
-0.571,0.0956,0.8491,-0.56,-2.31,1.4,16,463
-0.5685,0.0971,0.8477,-0.35,-2.38,0.98,0,465
-0.569,0.0986,0.8477,-0.42,-2.38,1.26,1,472
-0.5739,0.0952,0.8511,-0.49,-2.59,0.98,5,467
-0.5666,0.0986,0.8491,-0.7,-2.24,1.33,6,462
-0.5685,0.0956,0.8481,-0.49,-2.38,1.26,7,462
-0.571,0.0971,0.8462,-0.35,-2.38,1.33,3,465
-0.571,0.0971,0.8491,-0.63,-2.38,1.26,3,466
-0.5695,0.0966,0.8501,-0.21,-2.38,1.12,9,463
-0.5675,0.0961,0.8472,-0.42,-2.31,0.98,6,471
-0.571,0.0952,0.8491,-0.63,-2.24,1.4,8,466
-0.5695,0.0956,0.8477,-0.7,-2.52,0.98,5,463
-0.571,0.0947,0.8486,-0.49,-2.52,1.19,7,459
-0.5714,0.0961,0.8501,-0.35,-2.52,0.84,6,462
-0.5695,0.0942,0.8511,-0.7,-2.31,1.26,5,466
-0.5685,0.0991,0.8467,-0.56,-2.17,1.19,8,462
-0.5695,0.0947,0.8481,-0.21,-2.59,1.05,3,462
-0.5724,0.0961,0.8501,-0.42,-2.52,1.12,5,458
-0.568,0.0966,0.8467,-0.7,-2.03,1.4,1,463
-0.571,0.0942,0.8472,-0.42,-2.45,1.26,6,455
-0.5714,0.0922,0.8516,-0.28,-2.52,1.12,9,464
-0.5705,0.0952,0.8491,-0.56,-2.45,1.12,5,457
-0.5705,0.0952,0.8506,-0.21,-2.52,0.84,6,457
-0.571,0.0966,0.8457,-0.49,-2.31,1.12,8,460
-0.571,0.0956,0.8486,-0.56,-2.31,0.98,9,459
-0.5675,0.0947,0.8496,-0.14,-2.59,1.12,8,467
-0.5695,0.0947,0.8486,-0.56,-2.17,1.26,9,459
-0.5714,0.0952,0.8472,-0.63,-2.03,1.33,4,457
-0.5714,0.0952,0.8501,-0.63,-2.31,1.05,8,459
-0.5729,0.0932,0.8472,-0.35,-2.31,1.33,7,464
-0.569,0.0942,0.8501,-0.84,-2.24,1.12,5,455
-0.568,0.0947,0.8506,-0.35,-2.38,1.19,5,455
-0.571,0.0947,0.8477,-0.28,-2.31,1.19,7,458
-0.5734,0.0952,0.8457,-0.42,-2.52,0.98,6,450
-0.5714,0.0966,0.8486,-0.63,-2.1,1.12,3,452
-0.5714,0.0922,0.8462,-0.42,-2.17,1.05,8,448
-0.5724,0.0976,0.8462,-0.28,-2.66,1.05,7,448
-0.571,0.0937,0.8472,-0.56,-2.24,1.19,4,441
-0.5705,0.0937,0.8486,-0.56,-2.52,0.98,3,441
-0.571,0.0942,0.8486,-0.77,-2.31,1.4,8,444
-0.571,0.0961,0.8467,-0.49,-2.45,1.19,7,448
-0.57,0.0927,0.8481,-0.35,-2.52,1.33,6,438
-0.571,0.0971,0.8535,-0.63,-2.38,1.19,8,442
-0.5719,0.102,0.8472,-0.77,-2.38,0.98,10,437
-0.569,0.0961,0.8477,-0.07,-2.52,0.91,3,437
-0.5695,0.0908,0.8481,-0.21,-2.24,1.19,9,440
-0.5714,0.0956,0.8481,-0.63,-2.38,1.12,0,440
-0.568,0.0956,0.8481,-0.56,-2.24,1.19,5,441
-0.5719,0.0942,0.8467,-0.28,-2.24,1.05,4,438
-0.5719,0.0947,0.8472,-0.35,-2.66,1.12,8,435
-0.5729,0.0927,0.8501,-0.84,-2.31,1.54,0,440
-0.571,0.0966,0.8486,-0.56,-2.38,1.19,8,440
-0.5739,0.0947,0.8511,-0.56,-2.45,1.26,10,443
-0.5719,0.0947,0.8447,-0.35,-2.52,1.05,5,443
-0.5695,0.0956,0.8462,-0.63,-2.31,1.47,0,439
-0.5714,0.0956,0.8452,-0.49,-2.31,1.26,9,442
-0.57,0.0947,0.8491,-0.42,-2.31,1.05,6,441
-0.5714,0.0947,0.8491,-0.63,-2.59,1.4,7,446
-0.5724,0.0952,0.8452,-0.21,-2.52,1.19,8,445
-0.5719,0.0942,0.8452,-0.49,-2.52,1.26,7,447
-0.568,0.0961,0.8477,-0.42,-2.17,1.4,4,447
-0.5729,0.0932,0.8491,-0.56,-2.59,1.4,4,446
-0.5695,0.0976,0.8486,-0.14,-2.52,1.19,8,451
-0.5714,0.0942,0.8472,-0.35,-2.38,1.12,4,453
-0.5719,0.0942,0.8467,-0.14,-2.31,0.84,8,449
-0.5729,0.0942,0.8496,-0.49,-2.38,1.33,8,448
-0.57,0.0956,0.8472,-0.63,-2.31,1.33,8,450
-0.568,0.0952,0.8496,-0.42,-1.96,1.26,8,453
-0.571,0.0966,0.8472,-0.35,-2.52,1.19,0,448
-0.568,0.0947,0.8481,-0.49,-2.31,1.26,5,448
-0.57,0.0956,0.8491,-0.35,-2.52,0.98,6,450
-0.5714,0.0947,0.8486,-0.35,-2.45,1.05,9,452
-0.569,0.0966,0.8496,-0.63,-2.31,1.33,3,454
-0.568,0.0952,0.8462,-0.42,-2.24,1.26,6,448
-0.5729,0.0956,0.8442,-0.42,-2.38,1.05,9,450
-0.5705,0.0956,0.8486,-0.28,-2.59,1.05,0,451
-0.568,0.0956,0.8486,-0.35,-2.52,0.91,7,445
-0.5744,0.0971,0.8481,-0.49,-2.45,1.12,8,445
-0.5734,0.0961,0.8477,-0.56,-2.31,1.33,8,450
-0.5729,0.0952,0.8462,-0.35,-2.31,1.19,10,453
-0.568,0.1064,0.8511,-0.84,-2.45,0.91,9,454
-0.5675,0.0947,0.8496,0.28,-2.66,0.7,9,456
-0.5695,0.0932,0.8477,-0.21,-2.52,1.19,8,451
-0.569,0.0976,0.8467,-0.49,-2.59,1.47,5,456
-0.57,0.0971,0.8481,-0.56,-2.31,1.26,7,456
-0.5695,0.0971,0.8486,-0.21,-2.66,0.84,8,457
-0.571,0.0952,0.8491,-0.21,-2.17,1.26,3,453
-0.57,0.0971,0.8467,-0.49,-2.8,1.05,9,455
-0.5744,0.0952,0.8452,-0.49,-2.73,1.26,4,458
-0.5714,0.0937,0.8511,-0.56,-2.59,1.4,12,451
-0.5695,0.0942,0.8491,-0.28,-2.59,0.84,6,455
-0.5685,0.0981,0.8472,-0.42,-2.17,1.47,2,458
-0.571,0.0952,0.8511,0,-2.45,0.77,6,454
-0.5724,0.0961,0.8486,-0.49,-2.31,1.33,6,457
-0.5695,0.0947,0.8481,-0.21,-2.17,1.54,8,455
-0.571,0.0961,0.8472,-0.35,-2.52,1.19,6,455
-0.5685,0.0966,0.8462,-0.21,-2.59,0.98,6,466
-0.5719,0.0947,0.8477,-0.56,-2.52,1.26,6,463
-0.5695,0.0976,0.8462,-0.42,-2.24,1.12,5,463
-0.5744,0.0942,0.8496,-0.49,-2.38,1.26,6,466
-0.569,0.0971,0.8481,-0.63,-2.17,1.4,10,467
-0.5739,0.0956,0.8472,-0.49,-2.31,1.12,8,471
-0.5695,0.0971,0.8506,-0.77,-2.38,1.33,0,469
-0.571,0.0961,0.8491,-0.28,-2.24,1.19,6,471
-0.5714,0.0976,0.8462,-0.35,-2.52,1.12,7,480
-0.5714,0.0952,0.8496,-0.42,-2.38,1.19,10,471
-0.57,0.0966,0.8457,-0.49,-2.24,1.19,8,472
-0.569,0.0991,0.8452,-0.42,-2.31,1.19,3,469
-0.5705,0.0947,0.8477,-0.91,-2.52,1.75,7,470
-0.5714,0.0932,0.8496,-0.56,-2.24,1.33,3,471
-0.5695,0.0991,0.8486,-0.56,-2.31,1.12,3,463
-0.569,0.0991,0.8491,-1.05,-2.38,1.68,12,471
-0.57,0.0947,0.8467,-0.28,-2.59,1.12,0,471
-0.5705,0.0991,0.8467,-0.35,-2.59,1.26,8,473
-0.5671,0.0952,0.8486,-0.56,-2.17,1.33,7,473
-0.5714,0.0966,0.8481,-0.49,-2.45,1.19,3,470
-0.5671,0.0961,0.8501,0,-2.59,0.84,4,471
-0.5685,0.0961,0.8477,-0.7,-2.45,1.26,1,474
-0.5671,0.0952,0.8462,-0.49,-2.52,1.26,7,477
-0.5705,0.0937,0.8491,-0.63,-2.45,1.26,5,467
-0.5714,0.0952,0.8491,-0.35,-2.52,0.91,6,476
-0.568,0.0937,0.8481,-0.56,-2.31,1.19,8,467
-0.5719,0.0966,0.8477,-0.42,-2.59,1.05,3,465
-0.5695,0.0971,0.8477,-0.42,-2.31,1.12,7,470
-0.57,0.0976,0.8511,-0.56,-2.38,1.19,8,471
-0.569,0.0971,0.8486,-0.56,-2.45,1.33,8,469
-0.5685,0.0961,0.8477,-0.42,-2.17,1.19,3,470
-0.5695,0.0971,0.8477,-0.56,-2.45,1.26,5,471
-0.5705,0.0971,0.8438,0.21,-2.87,1.26,8,470
-0.568,0.0956,0.8486,-0.77,-2.24,1.33,7,470
-0.5695,0.0961,0.8501,-0.49,-2.1,1.26,7,474
-0.5695,0.0956,0.8481,-0.28,-2.8,0.77,5,472
-0.569,0.0961,0.8501,-0.56,-2.17,1.19,8,470
-0.5671,0.0971,0.8491,-0.35,-2.31,1.19,5,471
-0.568,0.0942,0.8462,-0.77,-2.38,1.47,3,473
-0.5719,0.0966,0.8462,-0.42,-2.52,1.12,5,463
-0.5666,0.0961,0.8496,-0.35,-2.24,0.91,8,474
-0.57,0.0961,0.8501,-0.35,-2.38,1.33,7,469
-0.5695,0.0966,0.8462,-0.49,-2.1,1.12,10,472
-0.5685,0.0961,0.8486,-0.56,-2.45,1.33,9,471
-0.57,0.0961,0.8452,-0.49,-2.17,0.98,4,471
-0.57,0.0952,0.8462,-0.14,-2.52,1.33,5,468
-0.569,0.0937,0.8457,-0.35,-2.1,0.98,10,468
-0.5729,0.0976,0.8511,-0.28,-2.52,0.91,9,465
-0.571,0.0971,0.852,-0.28,-2.31,1.33,6,465
-0.571,0.0961,0.8491,-0.49,-2.52,1.05,5,467
-0.5719,0.0952,0.8472,-0.28,-2.17,1.12,8,465
-0.5675,0.0966,0.8477,-0.63,-2.45,1.19,12,468
-0.5671,0.0976,0.8486,-0.42,-2.38,1.19,2,469
-0.5695,0.0961,0.8481,-0.49,-2.31,1.26,3,464
-0.5714,0.0947,0.8477,-0.49,-2.45,1.05,4,465
-0.5695,0.0942,0.8481,-0.35,-2.52,1.05,5,467
-0.5714,0.0971,0.8506,-0.28,-2.45,1.26,7,461
-0.569,0.0942,0.8477,-0.63,-2.38,1.26,8,464
-0.568,0.0942,0.8477,-0.77,-2.45,1.4,9,462
-0.5705,0.0961,0.8501,-0.42,-2.73,0.98,4,462
-0.5695,0.0932,0.8462,-0.7,-2.24,1.54,7,461
-0.5685,0.0971,0.852,-0.42,-2.52,1.26,6,463
-0.57,0.0952,0.8462,-0.49,-2.38,1.4,9,459
-0.5705,0.0971,0.8467,-0.35,-2.38,1.12,12,460
-0.5714,0.0966,0.8511,-0.56,-2.31,1.26,7,455
-0.57,0.0966,0.8472,-0.28,-2.59,1.19,6,455
-0.5685,0.0971,0.8477,-0.21,-2.66,0.84,8,458
-0.571,0.0966,0.8496,-0.7,-2.31,1.4,8,465
-0.5739,0.0952,0.8516,-0.56,-2.52,1.26,10,463
-0.5695,0.0956,0.8457,-0.7,-2.17,1.47,0,463
-0.568,0.0966,0.8481,-0.42,-2.45,1.05,10,468
-0.5705,0.0952,0.8486,-0.49,-2.45,1.26,8,463
-0.5666,0.0961,0.8452,-0.35,-2.03,1.61,8,464
-0.57,0.0947,0.8496,-0.35,-2.45,0.91,11,463
-0.569,0.0976,0.8481,-0.35,-2.59,1.05,4,465
-0.5705,0.0947,0.8486,-0.63,-2.31,1.68,6,461
-0.569,0.0971,0.8481,-0.49,-2.31,0.84,4,458
-0.5671,0.0947,0.8472,-0.35,-2.52,1.05,9,463
-0.5695,0.0981,0.8481,-0.77,-2.31,1.61,5,466
-0.57,0.0952,0.8467,-0.35,-2.31,1.19,12,459
-0.57,0.0937,0.8481,-0.49,-2.66,1.12,4,464
-0.569,0.0996,0.8516,-0.63,-2.38,1.26,1,463
-0.5695,0.0976,0.8467,-0.56,-2.24,0.98,3,462
-0.5739,0.0927,0.8516,-0.35,-2.24,1.12,11,464
-0.5714,0.0986,0.8467,-0.49,-2.38,1.4,6,461
-0.57,0.0996,0.8467,-0.42,-2.1,1.47,7,464
-0.5714,0.0903,0.8486,-0.42,-2.45,1.12,7,460
-0.571,0.0942,0.8496,-0.7,-2.17,1.05,7,456
-0.5671,0.0966,0.8506,-0.42,-2.1,1.26,7,459
-0.571,0.0966,0.8447,-0.21,-2.52,0.84,5,464
-0.5729,0.0947,0.8447,-0.56,-2.03,1.4,3,461
-0.571,0.0961,0.8457,-0.7,-2.66,1.26,8,455
-0.571,0.0952,0.8481,-0.77,-2.1,1.26,10,458
-0.569,0.0956,0.8481,-0.28,-2.52,0.91,8,455
-0.5685,0.0961,0.8467,-0.35,-2.73,0.98,9,461
-0.5719,0.0956,0.8491,-0.42,-2.52,1.12,1,464
-0.571,0.0966,0.8462,-0.49,-2.03,1.4,6,461
-0.5714,0.0966,0.8457,-0.77,-2.24,1.47,8,460
-0.5719,0.0947,0.8472,-0.28,-2.66,0.91,9,457
-0.569,0.0971,0.8467,-0.21,-2.45,0.91,3,457
-0.57,0.0961,0.8467,-0.49,-2.59,1.26,7,458
-0.5719,0.0947,0.8477,-0.35,-2.03,1.33,8,458
-0.571,0.0971,0.8486,-0.35,-2.17,0.98,5,463
-0.571,0.0966,0.8481,-0.14,-2.52,0.98,3,456
-0.5729,0.0937,0.8481,-0.07,-2.59,0.63,5,453
-0.5705,0.0952,0.8467,-0.49,-2.31,1.19,3,455
-0.5714,0.0971,0.8511,-0.28,-2.52,1.05,5,461
-0.571,0.0937,0.8457,-0.63,-2.45,1.12,3,459
-0.5719,0.0981,0.8481,-0.42,-2.38,1.4,6,461
-0.571,0.0952,0.8486,-0.42,-2.73,1.19,7,461
-0.5739,0.0981,0.8457,-0.63,-2.66,1.33,8,461
-0.5719,0.0952,0.8472,-0.07,-2.45,1.05,8,462
-0.57,0.0961,0.8501,-0.28,-2.52,1.26,5,462
-0.569,0.0956,0.8457,-0.7,-2.24,1.54,7,463
-0.571,0.0961,0.8496,-0.7,-2.31,1.33,4,466
-0.5719,0.0986,0.8486,-0.42,-2.59,1.12,5,461
-0.5695,0.0952,0.8457,-0.63,-2.31,1.4,6,463
-0.5695,0.0976,0.8496,0,-2.8,0.56,6,462
-0.5685,0.0966,0.8496,-0.49,-2.38,1.19,9,466
-0.57,0.0986,0.8491,-0.35,-2.45,1.19,4,464
-0.5719,0.0952,0.8467,-0.28,-2.45,1.19,5,463
-0.571,0.0947,0.8462,-0.35,-2.52,1.33,7,463
-0.5714,0.0981,0.8481,-0.42,-2.52,1.19,7,466
-0.57,0.0981,0.8472,-0.49,-2.17,1.19,7,464
-0.5695,0.0937,0.8467,-0.49,-2.52,1.05,10,461
-0.5666,0.0947,0.8486,-0.56,-2.45,1.33,3,464
-0.5685,0.0961,0.8496,-0.42,-2.31,1.05,5,462
-0.5714,0.0952,0.8477,-0.56,-2.45,1.26,8,466
-0.5714,0.0961,0.8486,-0.21,-2.24,1.19,5,463
-0.5719,0.0961,0.8491,-0.56,-2.38,1.19,4,465
-0.571,0.0956,0.8472,-0.35,-2.03,1.26,3,465
-0.5705,0.0952,0.8501,-0.21,-2.59,1.05,5,463
-0.5714,0.0966,0.8506,-0.28,-2.17,1.05,12,459
-0.568,0.0952,0.8467,-0.49,-2.1,1.05,10,463
-0.57,0.0966,0.8462,-0.49,-2.52,1.12,5,465
-0.5705,0.0956,0.8506,-0.42,-2.45,1.12,10,464
-0.5714,0.0966,0.8496,-0.42,-2.66,1.05,3,464
-0.568,0.0961,0.8472,-0.35,-2.52,1.12,8,463
-0.5705,0.0942,0.8467,-0.42,-2.38,1.33,5,469
-0.5724,0.0981,0.8491,-0.49,-2.59,1.12,8,470
-0.568,0.0966,0.8481,-0.98,-2.59,1.54,7,463
-0.569,0.0956,0.8481,-0.35,-2.45,1.12,4,463
-0.5671,0.0956,0.8511,-0.42,-2.38,1.19,4,467
-0.569,0.0956,0.8486,-0.28,-2.59,1.05,6,470
-0.5729,0.0961,0.8462,-0.28,-2.66,1.05,7,472
-0.568,0.0937,0.8486,-0.42,-2.31,1.19,6,470
-0.5705,0.0956,0.8491,-0.42,-2.52,1.26,7,471
-0.5666,0.0956,0.8496,-0.56,-2.17,1.4,7,464
-0.569,0.0981,0.8481,-0.42,-2.52,1.05,0,472
-0.5685,0.0971,0.8467,-0.35,-2.59,1.12,6,467
-0.571,0.0991,0.8481,-0.56,-2.45,1.12,9,473
-0.5719,0.0971,0.8506,-0.42,-2.52,0.77,9,466
-0.57,0.0966,0.8481,-0.7,-2.59,1.33,7,468
-0.5685,0.0961,0.8486,-0.56,-2.03,1.33,5,466
-0.5695,0.0971,0.8457,-0.49,-2.03,1.26,7,464
-0.5729,0.0947,0.8496,-0.84,-2.24,1.61,5,467
-0.5714,0.0952,0.8486,-0.63,-2.52,1.33,7,468
-0.5685,0.0961,0.8472,-0.21,-2.31,1.05,6,468
-0.5719,0.0952,0.8486,-0.42,-2.31,1.19,5,465
-0.5685,0.0966,0.8442,-0.63,-2.31,1.33,8,467
-0.5705,0.0961,0.8477,-0.56,-2.38,1.33,3,468
-0.569,0.0971,0.8462,-0.77,-2.73,1.4,7,468
-0.5695,0.0966,0.8525,-0.56,-2.24,1.05,4,465
-0.57,0.0956,0.8486,-0.42,-2.31,1.05,5,471
-0.5719,0.0947,0.8477,-0.28,-2.31,1.12,9,472
-0.568,0.0942,0.8462,-0.14,-2.52,1.05,5,470
-0.5705,0.0971,0.8516,-0.56,-2.45,1.19,10,471
-0.5695,0.0981,0.8477,-0.63,-2.24,1.05,5,472
-0.5685,0.0952,0.8481,-0.49,-2.52,1.12,8,467
-0.5695,0.0947,0.8462,-0.42,-2.31,1.05,7,467
-0.57,0.0981,0.8472,-0.56,-2.45,1.12,7,459
-0.5685,0.0947,0.8477,-0.56,-2.31,1.26,6,472
-0.569,0.0971,0.8477,-0.35,-2.38,1.12,7,468
-0.569,0.0956,0.8442,-0.49,-2.66,1.12,1,466
-0.5675,0.0971,0.8491,-0.49,-2.59,1.05,7,467
-0.571,0.0966,0.8486,-0.63,-2.45,1.05,2,469
-0.569,0.0971,0.8467,-0.35,-2.45,1.19,9,472
-0.57,0.0942,0.8467,-0.49,-2.52,1.19,5,472
-0.5695,0.0961,0.8506,-0.42,-2.52,1.05,7,470
-0.5719,0.0991,0.8477,-0.14,-2.66,0.7,5,471
-0.5685,0.0937,0.8462,-0.21,-2.66,1.12,8,467
-0.5729,0.0942,0.8472,-0.49,-2.38,1.12,4,471
-0.571,0.0961,0.8481,-0.28,-2.59,0.91,7,469
-0.5705,0.0947,0.8472,-0.49,-2.52,1.33,9,468
-0.569,0.0961,0.8496,-0.28,-2.52,0.98,7,465
-0.57,0.0947,0.8477,-0.49,-2.38,1.33,3,465
-0.5719,0.0961,0.8472,-0.21,-2.03,1.12,6,465
-0.569,0.0976,0.8491,-0.28,-2.59,0.84,12,463
-0.569,0.0947,0.8486,-0.42,-2.52,1.19,13,468
-0.57,0.0976,0.8491,0,-2.8,1.19,5,463
-0.569,0.0947,0.8481,-0.35,-2.24,1.26,7,471
-0.5719,0.0956,0.8462,-0.28,-2.52,0.91,6,468
-0.568,0.0971,0.8486,-0.63,-2.38,1.4,3,467
-0.5685,0.0961,0.8467,-0.7,-2.24,1.47,8,466
-0.5695,0.0952,0.8481,-0.49,-2.31,1.19,3,467
-0.5719,0.0971,0.8472,-0.56,-2.66,1.12,6,467
-0.5714,0.0952,0.8481,-0.63,-2.24,1.19,8,461
-0.5724,0.0961,0.8481,-0.35,-2.59,0.91,0,466
-0.5695,0.0952,0.8486,-0.49,-2.59,1.05,8,467
-0.57,0.0956,0.8481,-0.63,-2.38,1.26,8,464
-0.57,0.0971,0.8501,-0.56,-2.24,1.19,4,470
-0.5714,0.0961,0.8452,-0.42,-2.1,1.4,10,465
-0.569,0.0952,0.8472,-0.28,-2.59,0.98,4,465
-0.57,0.0942,0.8472,-0.56,-2.31,1.26,8,466
-0.5695,0.0952,0.8491,-0.35,-2.59,0.98,3,464
-0.5719,0.0961,0.8472,-0.7,-2.52,1.12,6,471
-0.5675,0.0942,0.8452,-0.63,-2.52,1.33,3,468
-0.571,0.0961,0.8462,-0.28,-2.66,0.84,3,467
-0.5695,0.0937,0.8496,-0.35,-2.59,0.98,9,473
-0.57,0.0961,0.8481,0.07,-2.73,1.12,5,463
-0.568,0.0956,0.8506,-0.42,-2.45,1.26,6,476
-0.5719,0.0961,0.8486,-0.35,-2.52,1.19,7,476
-0.5685,0.0986,0.8457,-0.42,-2.38,1.47,2,467
-0.5714,0.0952,0.8486,-0.56,-2.38,1.19,9,468
-0.5714,0.0961,0.8481,-0.56,-2.38,1.26,7,471
-0.571,0.0952,0.8486,-0.42,-2.45,1.12,2,469
-0.5685,0.0961,0.8467,-0.7,-2.17,1.47,8,468
-0.5705,0.0952,0.8501,-0.14,-2.24,1.33,3,470
-0.57,0.0947,0.8457,-0.42,-2.31,1.19,8,474
-0.5714,0.0956,0.8516,-0.21,-2.66,0.84,5,465
-0.571,0.0986,0.8481,-0.77,-2.45,1.33,6,463
-0.571,0.0976,0.8496,-0.7,-2.31,1.33,6,470
-0.569,0.0952,0.8442,-0.07,-2.31,0.84,9,476
-0.5714,0.0966,0.8511,-0.35,-2.52,1.19,6,472
-0.5695,0.0956,0.8472,-0.28,-2.38,0.98,9,471
-0.57,0.0952,0.8491,-0.35,-2.66,1.26,7,467
-0.5719,0.0966,0.8481,-0.7,-2.38,1.33,8,467
-0.5675,0.0956,0.8506,-0.42,-2.38,1.26,7,473
-0.571,0.0952,0.8511,-0.35,-2.38,1.19,4,472
-0.569,0.0976,0.8506,-0.35,-1.96,1.26,3,474
-0.571,0.0966,0.8511,-0.42,-2.24,1.19,9,472
-0.568,0.0952,0.8486,-0.35,-2.73,1.05,3,472
-0.5714,0.0932,0.8481,-0.49,-2.38,1.19,9,471
-0.5685,0.0961,0.8496,-0.56,-2.17,1.4,6,472
-0.5714,0.0966,0.8467,-0.21,-2.38,0.98,12,472
-0.5729,0.0947,0.8501,-0.42,-2.94,1.26,0,472
-0.5685,0.0956,0.8467,-0.42,-1.96,1.33,8,474
-0.5695,0.0913,0.8477,0.21,-2.66,0.84,10,467
-0.569,0.0947,0.8486,-0.42,-2.38,1.12,5,472
-0.5719,0.0942,0.8491,-0.35,-2.45,1.19,11,474
-0.5661,0.0942,0.8491,-0.42,-2.59,1.12,4,471
-0.569,0.0961,0.8477,-0.56,-2.45,1.26,3,468
-0.5734,0.0966,0.8472,-0.7,-2.31,1.26,11,472
-0.5671,0.0976,0.8511,-0.77,-2.1,1.4,7,470
-0.5724,0.0947,0.8442,0.14,-2.59,1.05,7,473
-0.569,0.0947,0.8462,-0.63,-2.66,0.91,8,468
-0.57,0.0971,0.8486,-0.35,-2.66,0.77,8,470
-0.569,0.0952,0.8481,-0.35,-2.17,1.4,0,468
-0.5695,0.0952,0.8486,-0.28,-2.66,0.91,1,472
-0.57,0.0942,0.8472,-0.35,-2.38,1.26,0,472
-0.569,0.0976,0.8506,-0.21,-2.1,0.98,11,463
-0.5695,0.0956,0.8481,-0.42,-2.38,1.26,9,471
-0.5675,0.0937,0.852,-0.28,-2.66,1.05,16,474
-0.5724,0.0961,0.8472,-0.42,-2.31,1.26,7,469
-0.569,0.0947,0.8467,-0.42,-2.38,0.98,6,467
-0.5734,0.0986,0.8472,-0.77,-2.38,1.33,6,472
-0.57,0.0971,0.8506,-0.42,-2.1,1.05,6,471
-0.5714,0.0971,0.8491,-0.49,-2.24,1.26,5,467
-0.568,0.0937,0.8481,-0.35,-2.31,1.19,7,472
-0.5671,0.0956,0.8486,-0.56,-2.38,1.05,5,474
-0.5724,0.0976,0.8452,-0.42,-2.24,1.33,8,473
-0.571,0.0947,0.8472,-0.35,-2.17,1.19,9,469
-0.5695,0.0961,0.8506,-0.42,-2.38,1.19,3,468
-0.5695,0.0981,0.8442,-0.56,-2.52,1.26,7,468
-0.5705,0.0956,0.8481,-0.42,-2.38,0.98,8,469
-0.569,0.0937,0.8472,-0.56,-2.45,1.26,5,467
-0.5695,0.0956,0.8486,-0.35,-2.17,1.12,12,474
-0.5705,0.0961,0.8501,-0.56,-2.31,1.19,8,466
-0.5729,0.0952,0.8481,-0.56,-2.38,1.19,7,470
-0.569,0.0956,0.8486,-0.56,-2.45,1.12,5,471
-0.57,0.0961,0.8486,-0.28,-2.45,1.05,6,470
-0.5685,0.0952,0.8491,-0.56,-2.38,0.91,8,467
-0.5705,0.0937,0.8491,-0.49,-2.45,1.12,8,471
-0.57,0.0961,0.8467,-0.63,-2.38,1.26,8,463
-0.569,0.0971,0.8477,-0.56,-2.31,1.33,8,473
-0.5695,0.0956,0.8501,-0.63,-2.31,1.26,3,470
-0.571,0.0976,0.8491,-0.35,-2.17,1.19,12,469
-0.5685,0.0947,0.8481,-0.56,-2.31,1.19,9,470
-0.569,0.0947,0.8481,-0.35,-2.24,1.12,7,466
-0.5685,0.0927,0.8477,-0.49,-2.24,1.12,7,463
-0.5705,0.0947,0.8462,-0.35,-2.52,1.12,8,468
-0.571,0.0966,0.8486,-0.42,-2.38,1.26,6,470
-0.569,0.0947,0.8496,-0.56,-2.38,1.26,8,470
-0.568,0.0952,0.8467,-0.56,-2.24,1.4,6,468
-0.568,0.0952,0.8467,-0.63,-2.38,0.98,3,462
-0.571,0.0956,0.852,-0.14,-2.31,1.19,5,463
-0.571,0.0956,0.8452,-0.28,-2.38,1.19,12,471
-0.5695,0.0956,0.8467,-0.35,-2.03,1.19,3,472
-0.5671,0.0976,0.8486,-0.7,-2.52,1.26,6,471
-0.57,0.0952,0.8501,-0.42,-2.59,0.91,0,472
-0.569,0.0966,0.8496,-0.28,-2.52,1.19,0,461
-0.569,0.0956,0.8477,-0.42,-2.38,1.12,0,464
-0.569,0.0947,0.8477,-0.21,-2.31,0.91,7,465
-0.569,0.0991,0.8486,-0.42,-2.24,1.12,6,469
-0.568,0.0966,0.8467,-0.42,-2.17,1.4,4,463
-0.5724,0.0971,0.8525,-0.56,-2.52,1.05,6,464
-0.568,0.0956,0.8481,-0.56,-2.31,1.26,3,465
-0.5724,0.0981,0.852,-0.49,-2.24,1.19,6,471
-0.5695,0.0981,0.8472,-0.35,-2.52,1.05,12,467
-0.569,0.0937,0.8486,-0.35,-2.45,1.12,7,465
-0.5714,0.0961,0.8496,-0.35,-2.52,0.84,4,468
-0.569,0.0942,0.8481,-0.77,-2.24,1.26,7,463
-0.5675,0.0961,0.8491,-0.7,-2.38,1.47,9,468
-0.5714,0.0952,0.8496,-0.49,-2.52,1.26,5,467
-0.5714,0.0947,0.8491,-0.56,-2.45,1.19,8,469
-0.5719,0.0981,0.8447,-0.56,-2.59,0.84,5,463
-0.5729,0.0971,0.8491,-0.28,-2.73,1.05,4,462
-0.571,0.0942,0.8481,-0.42,-2.52,0.98,4,460
-0.5729,0.0942,0.8496,-0.63,-2.03,1.47,11,456
-0.5671,0.0942,0.8486,-0.42,-2.87,0.98,6,459
-0.5705,0.0947,0.8501,-0.49,-2.1,1.12,8,464
-0.5724,0.0966,0.8496,0.07,-2.66,0.63,3,462
-0.5695,0.0942,0.8501,0,-2.52,0.35,6,455
-0.57,0.0942,0.8467,-0.14,-2.52,0.84,2,453
-0.5724,0.0956,0.8481,-0.42,-2.66,1.05,3,447
-0.5724,0.0947,0.8481,-0.7,-2.31,1.05,6,447
-0.5695,0.0937,0.8486,-0.42,-2.31,1.05,8,452
-0.5714,0.0976,0.8486,-0.28,-2.66,1.12,0,458
-0.57,0.0956,0.8491,-0.42,-1.96,1.33,5,453
-0.5719,0.0976,0.8486,-0.14,-2.66,0.77,5,450
-0.5719,0.0947,0.8486,-0.56,-2.31,1.12,7,448
-0.5714,0.0976,0.8501,-0.7,-2.1,1.47,7,452
-0.5685,0.0976,0.8472,-0.49,-2.31,1.05,7,450
-0.568,0.0942,0.8462,-0.35,-2.38,1.12,7,450
-0.5724,0.0966,0.8491,-0.28,-2.59,1.19,7,439
-0.568,0.0952,0.8467,-0.63,-2.52,1.33,5,444
-0.568,0.0966,0.8491,0.07,-2.73,0.63,7,443
-0.5714,0.0981,0.8472,-0.42,-2.38,1.05,1,448
-0.5705,0.0956,0.8481,-0.49,-2.38,1.33,8,446
-0.5719,0.0976,0.8472,-0.63,-2.1,1.19,7,442
-0.568,0.0952,0.8486,-0.35,-2.31,1.33,8,443
-0.5714,0.0961,0.8496,-0.56,-2.31,1.26,4,450
-0.5714,0.0947,0.8501,-0.91,-2.17,1.4,7,447
-0.5705,0.0956,0.8481,-0.42,-2.59,0.91,7,452
-0.568,0.0942,0.8486,-0.49,-2.31,1.4,9,448
-0.5714,0.0952,0.8472,-0.49,-2.38,1.33,5,443
-0.5705,0.0952,0.8477,-0.35,-2.52,1.05,8,445
-0.5685,0.0961,0.8486,-0.42,-2.38,1.19,8,439
-0.5695,0.0956,0.8477,-0.42,-2.45,0.98,4,439
-0.5695,0.0947,0.8481,-0.28,-2.52,1.05,3,448
-0.5714,0.0952,0.8467,-0.42,-2.45,1.12,10,449
-0.57,0.0947,0.8477,-0.49,-2.45,1.33,4,448
-0.5685,0.0932,0.8506,-0.42,-2.31,1.19,4,443
-0.57,0.0961,0.8462,-0.42,-2.38,1.26,9,448
-0.5719,0.0956,0.8467,-0.49,-2.38,1.12,7,443
-0.57,0.0966,0.8491,-0.28,-2.45,1.19,2,444
-0.5714,0.0947,0.8506,-0.49,-2.52,1.26,10,449
-0.571,0.0952,0.8516,-0.63,-2.17,1.12,7,443
-0.5695,0.0942,0.8462,0.07,-2.66,0.77,5,445
-0.5719,0.0942,0.8506,-0.7,-2.52,1.33,3,441
-0.5695,0.0937,0.8491,-0.35,-2.59,1.12,11,445
-0.5685,0.0966,0.8477,-0.28,-2.45,1.05,7,445
-0.5705,0.0952,0.8477,-0.56,-2.31,1.47,9,447
-0.5719,0.0947,0.8491,-0.56,-2.52,1.19,0,443
-0.568,0.0947,0.8491,-0.56,-2.52,1.19,4,451
-0.57,0.0966,0.8491,-0.56,-2.45,1.26,3,449
-0.5695,0.0956,0.8496,-0.35,-2.38,1.19,6,450
-0.5705,0.0956,0.8481,-0.49,-2.38,1.05,8,447
-0.5685,0.0976,0.8486,-0.42,-2.38,1.26,9,443
-0.5695,0.0961,0.8496,-0.42,-2.59,1.19,1,444
-0.5714,0.0952,0.8457,-0.42,-2.45,1.12,4,447
-0.571,0.0966,0.8496,-0.35,-3.01,1.05,6,441
-0.569,0.0956,0.8496,-0.35,-2.8,0.98,5,451
-0.5714,0.0956,0.8477,-0.21,-2.52,1.05,8,445
-0.569,0.0961,0.8467,-0.42,-2.45,1.19,4,444
-0.5719,0.0942,0.8501,-0.42,-2.66,1.19,8,439
-0.57,0.0961,0.8477,-0.42,-2.24,1.19,5,448
-0.571,0.0976,0.852,-0.35,-2.52,1.12,5,445
-0.5714,0.0947,0.8477,-0.35,-2.17,1.33,3,446
-0.57,0.0966,0.8472,-0.21,-2.45,1.26,5,448
-0.571,0.0961,0.8486,-0.49,-2.52,0.84,6,442
-0.5749,0.0932,0.8501,-0.63,-2.31,1.12,9,444
-0.5695,0.0966,0.8477,-0.56,-2.1,1.19,6,447
-0.569,0.0937,0.8472,-0.35,-2.52,0.91,7,439
-0.5719,0.0961,0.8496,-0.42,-2.59,1.19,6,443
-0.569,0.0947,0.8481,-0.63,-2.38,1.05,5,439
-0.5724,0.0932,0.8481,-0.63,-2.52,1.33,4,446
-0.5719,0.0961,0.8452,-0.56,-2.45,1.12,12,443
-0.5714,0.0961,0.8481,-0.42,-2.52,1.12,3,440
-0.5695,0.0952,0.8457,-0.49,-2.24,1.12,3,443
-0.5675,0.0913,0.8477,-0.49,-2.17,1.33,5,439
-0.5705,0.0956,0.8472,-0.35,-2.45,0.91,2,448
-0.569,0.0937,0.8462,-0.42,-2.38,1.19,7,446
-0.57,0.0952,0.8511,-0.28,-2.73,1.19,0,443
-0.569,0.0942,0.8486,-0.28,-2.52,1.05,4,445
-0.5705,0.0966,0.8481,-0.42,-2.38,1.26,8,441
-0.568,0.0966,0.8457,-0.42,-2.66,1.12,5,443
-0.569,0.0932,0.8481,-0.28,-2.59,1.33,3,446
-0.5714,0.0966,0.8511,-0.56,-2.38,1.19,2,444
-0.569,0.0956,0.8477,-0.56,-2.45,1.19,5,441
-0.5705,0.0961,0.8496,-0.49,-2.38,1.33,4,443
-0.5714,0.0942,0.8486,-0.35,-2.31,0.91,3,450
-0.5729,0.0952,0.8477,-0.56,-2.45,1.26,6,449
-0.5695,0.0961,0.8447,-0.7,-2.52,1.26,5,444
-0.5729,0.0927,0.8481,-0.35,-2.17,1.26,7,446
-0.5695,0.0976,0.8491,-0.42,-1.96,1.26,8,443
-0.569,0.0952,0.8472,-0.49,-2.38,1.12,8,446
-0.5695,0.0942,0.8491,-0.49,-2.31,1.19,5,448
-0.5734,0.0971,0.8481,-0.49,-2.59,0.63,7,444
-0.571,0.0956,0.8501,-0.49,-2.45,1.05,8,448
-0.5719,0.0966,0.8496,-0.21,-2.31,1.26,7,444
-0.5714,0.0942,0.8486,-0.35,-2.59,1.19,7,445
-0.5705,0.0937,0.8477,-0.14,-2.66,0.77,8,447
-0.568,0.0961,0.8477,-0.49,-2.1,1.33,4,447
-0.5714,0.0961,0.8491,-0.35,-2.73,1.12,3,442
-0.571,0.0947,0.8496,-0.35,-2.59,0.84,3,448
-0.571,0.0942,0.8491,-0.63,-2.17,1.26,4,448
-0.57,0.0961,0.8467,-0.63,-2.45,1.19,0,448
-0.5685,0.0956,0.8442,-0.28,-2.31,1.19,7,452
-0.5705,0.0952,0.8442,-0.35,-2.52,1.19,3,443
-0.5714,0.0952,0.8467,-0.49,-2.17,1.05,10,442
-0.571,0.0981,0.8486,-0.35,-2.31,1.33,9,450
-0.5685,0.0971,0.8496,-0.63,-2.52,1.05,5,448
-0.57,0.0952,0.8477,-0.28,-2.59,1.05,6,448
-0.5719,0.0956,0.8452,-0.35,-2.24,1.12,5,448
-0.57,0.0947,0.8496,-0.28,-2.59,1.05,6,445
-0.5705,0.0947,0.8481,-0.07,-2.66,1.05,10,451
-0.5705,0.0956,0.8467,-0.35,-2.52,1.12,8,451
-0.571,0.0956,0.8481,-0.63,-2.38,1.54,6,449
-0.5695,0.0937,0.8506,-0.56,-1.96,1.26,0,447
-0.5685,0.0932,0.8472,-0.42,-2.38,0.98,7,448
-0.569,0.0976,0.8472,-0.56,-2.31,1.26,6,448
-0.5714,0.0971,0.8491,-0.63,-2.59,1.26,6,452
-0.5714,0.0952,0.8467,-0.21,-2.66,0.98,3,448
-0.5685,0.0961,0.8506,-0.42,-2.59,0.98,6,451
-0.57,0.0942,0.8477,-0.35,-2.17,1.4,13,450
-0.5714,0.0956,0.8491,-0.49,-2.24,1.26,10,456
-0.57,0.0942,0.8486,-0.56,-2.17,1.4,8,447
-0.5724,0.0947,0.8477,-0.42,-2.24,1.26,8,455
-0.5695,0.0961,0.8506,-0.42,-2.31,1.33,8,447
-0.57,0.0937,0.8477,-0.49,-2.24,1.19,5,447
-0.5719,0.0952,0.8462,-0.42,-2.31,1.19,5,456
-0.571,0.0942,0.8511,-0.63,-2.45,1.47,5,446
-0.571,0.0961,0.8496,-0.42,-2.52,1.19,8,450
-0.5734,0.0947,0.8462,-0.42,-2.52,1.12,4,449
-0.568,0.0961,0.8486,-0.42,-2.31,1.26,8,452
-0.569,0.0947,0.8486,-0.35,-2.17,1.26,3,457
-0.5729,0.0952,0.8501,-0.35,-2.17,1.12,2,451
-0.571,0.0981,0.8496,-0.42,-2.52,1.12,6,450
-0.57,0.0947,0.8462,-0.35,-2.38,1.19,5,449
-0.57,0.0966,0.8477,-0.42,-2.59,1.26,10,455
-0.5695,0.0956,0.8496,-0.49,-2.31,1.33,12,447
-0.57,0.0952,0.8481,-0.28,-2.38,0.84,9,452
-0.5705,0.0952,0.8481,-0.56,-2.52,1.12,7,453
-0.569,0.0986,0.8486,-0.49,-2.52,1.19,8,458
-0.5695,0.0947,0.8477,-0.56,-2.45,1.19,6,454
-0.5695,0.0952,0.8467,-0.21,-2.31,1.12,7,457
-0.5685,0.0947,0.8481,-0.35,-2.31,1.26,7,457
-0.571,0.0947,0.8496,-0.49,-2.24,1.33,6,453
-0.5714,0.0947,0.8481,-0.56,-2.17,1.26,0,458
-0.569,0.0942,0.8486,-0.28,-2.45,1.05,8,451
-0.5695,0.0952,0.8477,-0.14,-2.59,0.98,8,458
-0.5695,0.0942,0.8496,-0.35,-2.52,1.05,8,455
-0.5705,0.0956,0.8491,-0.35,-2.45,1.05,6,451
-0.568,0.0961,0.8511,-0.35,-2.31,1.12,6,455
-0.5695,0.0976,0.8491,-0.42,-2.45,1.19,3,453
-0.5685,0.0956,0.8481,-0.49,-2.38,1.05,7,455
-0.5714,0.0956,0.8467,-0.42,-2.52,1.05,8,456
-0.57,0.0976,0.8486,-0.56,-2.45,1.26,3,459
-0.5695,0.0952,0.8491,-0.14,-2.52,0.77,11,455
-0.569,0.0971,0.8452,-0.56,-2.31,1.33,7,455
-0.57,0.0952,0.8496,-0.28,-2.17,1.05,11,455
-0.571,0.0947,0.8486,-0.49,-2.52,1.12,7,457
-0.5685,0.0966,0.8506,-0.42,-2.03,1.26,8,455
-0.569,0.0961,0.852,-0.56,-2.1,1.26,2,457
-0.5705,0.0956,0.8486,0.07,-2.59,0.63,2,460
-0.569,0.0937,0.8496,-0.49,-2.31,1.05,0,459
-0.5685,0.0922,0.8506,-0.42,-1.89,1.4,6,462
-0.5695,0.0942,0.8472,-0.56,-2.24,1.12,6,456
-0.5705,0.0937,0.8516,-0.63,-2.45,1.19,6,457
-0.5695,0.0942,0.8535,-0.42,-2.38,1.05,0,459
-0.5705,0.0961,0.8496,-0.28,-2.45,0.91,7,447
-0.5685,0.0956,0.8462,-0.35,-2.52,0.98,8,453
-0.5714,0.0961,0.8467,-0.14,-2.59,0.98,10,455
-0.569,0.0981,0.8481,-0.49,-2.52,1.19,7,454
-0.5661,0.0952,0.8501,-0.14,-2.45,0.7,12,462
-0.5719,0.0961,0.8467,-0.14,-2.24,0.91,12,453
-0.5685,0.0956,0.8467,-0.21,-2.17,0.91,3,457
-0.571,0.0942,0.8491,-0.21,-2.45,1.19,7,464
-0.571,0.0961,0.8516,-0.28,-2.52,0.84,8,455
-0.569,0.0952,0.8501,-0.49,-2.1,1.33,7,457
-0.5705,0.0952,0.8457,-0.28,-2.24,1.26,1,457
-0.5714,0.0952,0.8477,-0.63,-2.38,1.54,8,455
-0.5695,0.0961,0.8501,-0.28,-1.96,1.19,10,457
-0.5705,0.0966,0.8501,-0.49,-1.96,1.19,9,454
-0.568,0.0947,0.8511,-0.63,-2.31,1.33,10,455
-0.57,0.0937,0.8491,-0.35,-2.31,1.05,0,459
-0.57,0.0937,0.8467,-0.28,-2.52,0.91,3,455
-0.569,0.0961,0.8481,-0.28,-2.45,0.91,8,462
-0.568,0.0971,0.8516,-0.42,-2.45,1.12,0,447
-0.5734,0.0927,0.8457,-0.56,-2.52,1.26,0,458
-0.57,0.0947,0.8477,-0.84,-2.24,1.05,4,456
-0.5714,0.0942,0.8511,-0.35,-2.31,1.26,5,455
-0.5675,0.0952,0.8472,-0.28,-2.38,1.12,0,454
-0.571,0.0952,0.853,-0.21,-2.45,1.19,3,452
-0.571,0.0947,0.8467,-0.42,-2.45,0.84,14,450
-0.57,0.0932,0.8486,-0.35,-2.38,1.4,6,451
-0.5714,0.0947,0.8501,-0.28,-2.45,1.19,8,454
-0.5695,0.0971,0.8506,-0.7,-2.38,1.4,4,452
-0.5685,0.0947,0.8501,-0.49,-2.59,1.12,6,452
-0.5695,0.0942,0.8477,-0.77,-2.59,1.12,5,453
-0.569,0.0952,0.8511,-0.77,-2.45,1.12,2,454
-0.5714,0.0942,0.8462,-0.56,-2.38,1.12,6,451
-0.5695,0.0956,0.8481,-0.49,-2.73,1.19,5,451
-0.57,0.0937,0.8467,-0.56,-2.31,1.05,8,451
-0.5695,0.0947,0.8486,-0.56,-2.17,1.4,8,451
-0.5714,0.0961,0.8491,-0.42,-2.38,1.33,5,456
-0.5675,0.0952,0.8477,-0.35,-2.52,1.05,6,456
-0.569,0.0903,0.8501,-0.28,-2.31,1.19,7,449
-0.569,0.0947,0.8472,-0.21,-2.94,1.26,3,452
-0.57,0.0942,0.8486,-0.21,-2.59,0.98,0,447
-0.569,0.0971,0.8462,-0.42,-2.31,1.26,5,456
-0.57,0.0937,0.8486,-0.21,-2.8,0.84,3,451
-0.57,0.0966,0.8501,-0.49,-2.59,1.12,8,454
-0.569,0.0922,0.8516,-0.77,-2.24,1.33,7,455
-0.5675,0.0942,0.8462,-0.28,-2.59,0.98,3,447
-0.5695,0.0927,0.8457,0.35,-2.45,1.33,4,456
-0.571,0.0898,0.8481,-0.35,-2.17,1.19,4,452
-0.5724,0.0952,0.8477,-0.42,-2.17,1.12,6,447
-0.568,0.0952,0.8491,-0.49,-2.45,1.12,5,454
-0.5675,0.0961,0.8486,-0.35,-2.24,1.19,9,451
-0.5714,0.0961,0.8491,-0.49,-2.52,1.12,7,451
-0.5685,0.0952,0.8491,-0.42,-2.31,1.33,5,448
-0.57,0.0932,0.8481,-0.35,-2.45,1.26,5,449
-0.5695,0.0961,0.8496,-0.42,-2.52,1.05,3,455
-0.5685,0.0932,0.8477,-0.49,-2.17,1.33,7,447
-0.5695,0.0961,0.8486,-0.56,-2.24,1.26,9,451
-0.5695,0.0956,0.8442,-0.56,-2.03,1.05,8,447
-0.5714,0.0942,0.8496,-0.42,-2.17,1.19,6,443
-0.5714,0.0961,0.8481,-0.42,-2.24,1.33,2,451
-0.5685,0.0971,0.8496,-0.49,-1.89,1.4,10,451
-0.568,0.0971,0.8491,-0.35,-2.52,1.19,6,451
-0.5734,0.0956,0.8472,-0.21,-2.59,1.33,3,448
-0.57,0.0937,0.8481,-0.49,-2.24,1.19,8,453
-0.5695,0.0961,0.8457,-0.35,-2.38,1.26,7,447
-0.5695,0.0961,0.8491,-0.35,-2.45,1.12,4,449
-0.569,0.0947,0.8472,-0.7,-2.31,1.26,8,456
-0.5685,0.0942,0.8511,-0.49,-2.59,0.91,10,450
-0.5675,0.0966,0.8506,-0.49,-2.38,0.84,8,447
-0.569,0.0956,0.8506,-0.49,-2.31,1.19,3,453
-0.5695,0.0952,0.8477,-0.63,-2.52,1.26,7,448
-0.57,0.0942,0.8516,-0.28,-2.45,1.05,7,448
-0.568,0.0956,0.8496,-0.35,-2.59,1.19,5,450
-0.5671,0.0961,0.8477,-0.35,-2.59,0.98,4,449
-0.569,0.0971,0.8486,-0.49,-2.17,1.12,3,451
-0.569,0.0952,0.8511,-0.28,-2.45,1.26,5,447
-0.5724,0.0947,0.8457,-0.7,-2.03,1.4,6,452
-0.5724,0.0922,0.8496,-0.42,-2.31,1.33,4,449
-0.569,0.0971,0.8477,-0.49,-2.59,1.12,1,449
-0.569,0.0956,0.8501,-0.63,-2.31,1.05,0,452
-0.5671,0.0937,0.8477,-0.42,-2.1,1.12,3,448
-0.5685,0.0952,0.8491,-0.35,-2.45,0.91,6,447
-0.568,0.0947,0.8496,-0.63,-2.52,1.26,6,451
-0.568,0.0947,0.8501,-0.56,-2.31,1.19,3,452
-0.57,0.0961,0.8481,-0.56,-2.1,1.26,4,454
-0.5695,0.0956,0.8501,-0.35,-2.24,1.12,6,452
-0.5705,0.0971,0.8481,-0.42,-2.45,1.12,10,447
-0.5695,0.0956,0.8496,-0.42,-2.31,1.19,7,447
-0.5705,0.0952,0.8481,-0.63,-2.45,1.12,7,451
-0.571,0.0947,0.8486,-0.49,-2.59,1.05,5,452
-0.5675,0.0932,0.8481,-0.56,-2.31,1.33,8,451
-0.5671,0.0952,0.8486,-0.35,-2.38,1.26,9,454
-0.57,0.0971,0.8511,-0.42,-2.31,0.98,3,449
-0.5685,0.0942,0.8467,-0.42,-2.38,1.26,8,453
-0.57,0.0947,0.8462,-0.42,-2.52,1.33,12,454
-0.5724,0.0947,0.8462,-0.56,-2.52,1.4,7,449
-0.5675,0.0942,0.8496,-0.21,-2.52,0.91,3,453
-0.5675,0.0947,0.8491,-0.42,-2.45,1.19,9,454
-0.5685,0.0961,0.8472,-0.56,-2.38,1.26,5,457
-0.5719,0.0956,0.8525,-0.35,-2.24,1.19,3,456
-0.5714,0.0956,0.8491,-0.35,-2.31,1.26,3,453
-0.5671,0.0971,0.8462,-0.42,-2.52,1.12,0,451
-0.57,0.0942,0.8486,-0.42,-2.45,1.33,1,456
-0.5685,0.0966,0.8477,-0.49,-2.31,1.4,6,455
-0.571,0.0937,0.8491,-0.42,-2.38,1.26,8,451
-0.57,0.0971,0.8496,-0.49,-2.45,1.12,8,456
-0.5714,0.0952,0.8472,-0.28,-2.45,1.19,3,451
-0.571,0.0956,0.8525,-0.49,-2.45,1.26,5,456
-0.568,0.0947,0.8496,-0.42,-2.24,1.26,8,453
-0.5739,0.0952,0.8496,-0.49,-2.31,1.19,6,454
-0.5666,0.0971,0.8462,-0.35,-2.52,1.26,3,456
-0.5729,0.0971,0.8501,-0.63,-2.24,0.98,3,450
-0.5705,0.0956,0.8477,-0.56,-2.38,1.26,2,451
-0.568,0.0956,0.8496,-0.63,-2.45,0.98,3,454
-0.5734,0.0937,0.8516,-0.42,-2.24,1.47,4,450
-0.5675,0.0947,0.8511,-0.63,-2.17,1.26,7,447
-0.5695,0.0971,0.8467,-0.28,-2.38,0.98,3,453
-0.569,0.0956,0.8462,-0.28,-2.03,1.19,7,448
-0.5714,0.0976,0.8516,-0.56,-2.45,1.12,10,451
-0.5705,0.0942,0.8477,-0.28,-2.59,0.98,0,451
-0.57,0.0961,0.8486,-0.35,-2.24,1.4,7,449
-0.57,0.0937,0.8481,-0.49,-2.31,1.26,3,456
-0.5714,0.0966,0.8501,-0.35,-2.52,0.91,12,451
-0.5685,0.0981,0.8486,-0.49,-2.45,1.33,7,451
-0.5695,0.0942,0.8511,-0.49,-2.52,0.98,6,447
-0.5685,0.0947,0.8481,-0.49,-2.38,1.26,8,455
-0.57,0.0947,0.8501,-0.35,-2.17,1.05,0,451
-0.5724,0.0942,0.8516,-0.49,-2.38,1.26,8,455
-0.571,0.0927,0.8501,-0.49,-2.17,1.4,5,454
-0.571,0.0961,0.8457,-0.28,-2.52,0.98,4,452
-0.568,0.0952,0.8481,-0.35,-2.52,0.98,3,452
-0.571,0.0927,0.8491,-0.56,-2.31,1.33,9,451
-0.571,0.0937,0.8496,-0.56,-2.45,1.12,6,454
-0.5685,0.0956,0.8481,-0.42,-2.31,1.33,8,445
-0.5714,0.0947,0.8486,-0.63,-2.52,0.91,9,458
-0.5695,0.0976,0.8477,-0.77,-1.96,1.54,1,449
-0.5705,0.0947,0.8472,-0.49,-2.52,1.12,0,454
-0.5695,0.0971,0.8472,-0.49,-2.45,0.84,5,453
-0.571,0.0947,0.8501,-0.35,-2.38,1.05,3,447
-0.5685,0.0966,0.8486,-0.42,-2.66,1.19,6,455
-0.5705,0.0942,0.8496,-0.35,-2.24,1.19,8,451
-0.5705,0.0932,0.8481,-0.14,-2.52,1.05,8,454
-0.571,0.0932,0.8472,0,-2.59,0.63,0,451
-0.5705,0.0952,0.8491,-0.49,-2.45,1.12,5,451
-0.5671,0.0971,0.8516,-0.49,-2.31,1.4,9,449
-0.569,0.0956,0.8486,-0.42,-2.66,1.05,4,451
-0.569,0.0947,0.8496,-0.35,-2.31,1.19,6,455
-0.5724,0.0961,0.8486,-0.56,-2.31,1.26,7,455
-0.5661,0.0966,0.8477,-0.77,-2.38,1.33,3,451
-0.5685,0.0952,0.8477,-0.35,-2.52,1.12,7,452
-0.569,0.0947,0.8477,-0.56,-2.66,0.91,7,451
-0.5675,0.0961,0.8481,-0.42,-2.31,1.19,5,456
-0.5685,0.0937,0.8472,-0.42,-1.96,1.33,5,454
-0.5685,0.0942,0.8481,-0.7,-2.31,1.4,4,452
-0.57,0.0961,0.8462,-0.35,-2.38,1.12,3,452
-0.5705,0.0952,0.8481,-0.28,-2.66,0.91,9,451
-0.5695,0.0932,0.8496,-0.35,-2.52,0.98,6,456
-0.5705,0.0952,0.8472,-0.7,-2.59,1.26,5,449
-0.5714,0.0971,0.8491,-0.42,-2.24,1.4,8,456
-0.5661,0.0947,0.8516,-0.28,-2.31,1.05,8,447
-0.5705,0.0942,0.8467,-0.56,-2.31,1.33,7,447
-0.5705,0.0966,0.8486,-0.28,-2.66,1.12,9,448
-0.5666,0.0952,0.8506,-0.28,-2.38,1.05,5,452
-0.57,0.0947,0.8501,-0.56,-2.1,1.33,6,449
-0.57,0.0947,0.8491,-0.77,-2.24,1.68,7,454
-0.57,0.0937,0.8496,-0.28,-2.66,0.84,7,447
-0.5695,0.0947,0.8496,-0.49,-2.66,0.98,3,452
-0.569,0.0947,0.8501,-0.35,-2.73,0.77,12,448
-0.5724,0.0942,0.8501,-0.49,-2.38,1.26,7,447
-0.571,0.0942,0.8467,-0.28,-2.52,0.98,4,456
-0.5695,0.0956,0.8481,-0.56,-2.31,1.26,8,450
-0.57,0.0966,0.8467,-0.77,-2.45,1.26,5,445
-0.5714,0.0952,0.8496,-0.21,-2.45,1.19,4,447
-0.5705,0.0966,0.8472,-0.35,-2.24,1.33,6,452
-0.5685,0.0927,0.8501,-0.7,-2.1,1.19,6,448
-0.569,0.0956,0.8491,-0.35,-2.24,1.12,10,447
-0.5695,0.0961,0.8477,-0.56,-2.31,1.26,3,450
-0.5719,0.0947,0.8491,-0.42,-2.31,1.12,4,450
-0.571,0.0942,0.8491,-0.7,-2.52,1.26,6,447
-0.5695,0.0966,0.8516,-0.42,-2.59,1.05,1,449
-0.5714,0.0942,0.8472,-0.56,-2.24,1.19,9,448
-0.57,0.0937,0.8491,-0.42,-2.38,1.05,12,449
-0.569,0.0956,0.8491,-0.84,-2.31,1.47,8,449
-0.5705,0.0932,0.8486,-0.07,-2.52,1.19,0,445
-0.5685,0.0937,0.8462,0.14,-2.73,1.12,5,449
-0.5719,0.0956,0.8491,-0.42,-2.38,1.12,8,448
-0.5705,0.0942,0.8501,-0.42,-2.24,1.12,7,446
-0.5705,0.0937,0.8477,-0.35,-2.31,1.12,0,446
-0.569,0.0927,0.8477,-0.35,-2.52,1.12,9,448
-0.5685,0.0956,0.8501,-0.56,-2.24,1.26,8,456
-0.5724,0.0952,0.8491,-0.56,-2.52,1.19,9,449
-0.57,0.0961,0.852,-0.49,-2.45,1.26,7,451
-0.569,0.0961,0.8501,-0.42,-2.31,1.19,7,454
-0.5695,0.0952,0.8511,-0.35,-2.24,1.12,4,456
-0.568,0.0961,0.8491,-0.42,-2.45,1.19,5,450
-0.568,0.0961,0.8486,-0.35,-2.38,1.26,7,451
-0.5685,0.0966,0.8501,-0.35,-2.45,1.26,12,445
-0.5671,0.0942,0.8447,-0.42,-2.17,1.19,6,450
-0.57,0.0961,0.8506,-0.42,-2.31,1.19,12,447
-0.5734,0.0966,0.8501,-0.56,-2.66,1.19,5,451
-0.57,0.0932,0.8496,-0.07,-2.52,0.84,7,448
-0.5695,0.0956,0.8486,-0.63,-2.45,1.05,2,448
-0.568,0.0956,0.8501,-0.63,-2.45,1.05,5,449
-0.5685,0.0947,0.8501,-0.21,-2.59,0.91,8,449
-0.5734,0.0932,0.8452,-0.49,-2.17,1.33,4,450
-0.5666,0.0961,0.8481,-0.21,-2.59,0.84,7,448
-0.569,0.0942,0.8481,-0.35,-2.17,1.26,10,448
-0.57,0.0937,0.8496,-0.7,-2.52,1.26,4,447
-0.5719,0.0927,0.8511,-0.14,-2.52,0.98,10,453
-0.569,0.0932,0.8501,-0.28,-2.52,0.98,10,455
-0.5705,0.0956,0.8477,-0.35,-2.31,1.05,6,452
-0.5685,0.0966,0.8501,-0.63,-2.1,1.47,3,446
-0.571,0.0932,0.8516,-0.28,-2.52,0.98,1,455
-0.5685,0.0937,0.8457,-0.42,-2.24,1.12,8,451
-0.5695,0.0971,0.8496,-0.42,-2.1,1.19,8,449
-0.5714,0.0932,0.8491,-0.21,-2.59,0.98,7,451
-0.5714,0.0947,0.8481,-0.49,-2.38,1.05,8,447
-0.5714,0.0942,0.8496,-0.49,-2.24,1.05,5,451
-0.5719,0.0956,0.8511,-0.42,-2.31,1.26,7,448
-0.5705,0.0922,0.8486,-0.49,-2.52,1.05,2,454
-0.568,0.0971,0.8506,-0.63,-2.45,1.19,12,451
-0.569,0.0961,0.8516,-0.49,-2.45,1.19,3,452
-0.5685,0.0956,0.8477,-0.42,-2.45,1.19,7,454
-0.57,0.0937,0.8481,-0.21,-2.59,0.91,6,451
-0.568,0.0971,0.8477,-0.42,-2.59,1.05,4,456
-0.569,0.0952,0.8496,-0.56,-2.59,0.98,8,452
-0.571,0.0981,0.8486,-0.56,-2.66,1.19,7,452
-0.5671,0.0927,0.8501,-0.56,-2.52,1.12,6,451
-0.5695,0.0947,0.8481,-0.42,-2.31,1.26,6,450
-0.5675,0.0966,0.8472,-0.63,-2.59,1.4,8,452
-0.5675,0.0927,0.8496,-0.28,-1.96,1.19,5,453
-0.571,0.0961,0.8481,-0.77,-2.59,1.47,9,457
-0.5671,0.0956,0.8467,-0.49,-2.31,1.33,6,464
-0.5714,0.0956,0.8511,-0.42,-2.52,1.12,4,456
-0.5705,0.0961,0.8491,-0.42,-2.38,1.33,8,453
-0.569,0.0947,0.8472,-0.42,-2.24,1.19,7,455
-0.571,0.0956,0.8477,-0.28,-2.1,1.4,9,454
-0.57,0.0952,0.854,-0.42,-2.31,1.26,3,460
-0.57,0.0942,0.8496,-0.28,-2.24,1.4,7,453
-0.5666,0.0966,0.8501,-0.42,-2.52,1.19,0,455
-0.5675,0.0956,0.8496,-0.28,-2.52,1.05,7,456
-0.569,0.0991,0.8477,-0.07,-2.24,0.98,7,456
-0.57,0.0927,0.8457,-0.49,-2.66,1.19,5,459
-0.5685,0.0961,0.8506,-0.14,-2.8,1.12,5,455
-0.569,0.0956,0.8511,-0.49,-2.24,1.4,12,453
-0.5719,0.0976,0.8506,-0.42,-1.82,1.12,2,452
-0.569,0.0937,0.8501,-0.56,-2.31,1.19,12,456
-0.5695,0.0952,0.8501,-0.28,-2.59,1.05,0,457
-0.568,0.0971,0.8506,-0.7,-2.1,1.33,8,459
-0.571,0.0942,0.8486,-0.56,-2.73,1.12,9,456
-0.57,0.0952,0.8467,-0.49,-2.17,1.26,4,458
-0.5719,0.0976,0.8481,-0.42,-2.59,1.05,6,460
-0.5705,0.0956,0.8501,0,-2.73,0.84,10,460
-0.5666,0.0966,0.8467,-0.07,-2.59,0.84,7,456
-0.568,0.0971,0.8472,-0.49,-2.1,1.33,6,460
-0.5695,0.0947,0.8511,-0.42,-2.31,1.26,3,457
-0.5695,0.0942,0.8491,-0.49,-2.24,1.26,5,454
-0.5705,0.0971,0.8516,-0.56,-2.31,1.33,5,456
-0.57,0.0966,0.8481,-0.28,-2.52,0.98,8,460
-0.5675,0.0966,0.8491,-0.35,-2.31,1.33,0,457
-0.5685,0.0961,0.8501,-0.28,-2.52,1.12,7,461
-0.5671,0.0932,0.8452,-0.56,-2.24,1.12,8,464
-0.5671,0.0956,0.8501,-0.28,-2.59,0.84,3,455
-0.571,0.0937,0.8486,-0.7,-2.45,1.4,0,460
-0.5724,0.0956,0.8501,-0.28,-2.66,0.84,6,460
-0.5685,0.0927,0.8525,0.14,-2.45,0.7,7,458
-0.5675,0.0947,0.8481,-0.35,-2.1,1.19,0,458
-0.569,0.0956,0.8481,-0.56,-2.38,1.33,8,455
-0.5661,0.0952,0.8491,-0.42,-2.59,0.98,1,455
-0.5714,0.0942,0.8496,-0.49,-2.31,1.47,7,451
-0.5666,0.0956,0.8501,-0.14,-2.52,0.84,7,458
-0.5778,0.0952,0.8423,-0.56,-2.24,1.4,8,460
-0.569,0.0913,0.8496,-0.28,-2.31,1.26,7,463
-0.5695,0.0976,0.8491,-0.56,-2.24,1.47,8,454
-0.5671,0.0932,0.8501,-0.56,-2.73,1.33,3,463
-0.568,0.0952,0.8481,-0.07,-2.66,0.91,9,456
-0.5675,0.0956,0.8501,-0.49,-2.24,1.33,3,456
-0.57,0.0966,0.8486,-0.28,-2.59,0.91,9,460
-0.5671,0.0971,0.8506,-0.56,-2.45,1.19,10,457
-0.5714,0.0952,0.8501,-0.56,-2.52,1.33,8,460
-0.5671,0.0981,0.8501,-0.42,-2.31,1.47,4,456
-0.569,0.0971,0.8486,-0.49,-2.31,1.19,0,459
-0.568,0.0961,0.8511,-0.49,-2.66,1.05,3,460
-0.5661,0.0947,0.8477,-0.49,-2.24,1.54,3,464
-0.569,0.0971,0.8481,-0.42,-2.17,1.4,6,461
-0.5724,0.0942,0.8477,-0.42,-2.45,1.26,2,458
-0.569,0.0927,0.8511,-0.42,-2.45,1.26,6,458
-0.569,0.0971,0.8525,-0.42,-2.45,1.12,6,461
-0.5705,0.0971,0.8501,-0.42,-2.1,1.47,6,455
-0.569,0.0981,0.8491,-0.21,-2.24,0.91,4,461
-0.5685,0.0971,0.8506,-0.7,-2.38,1.33,6,463
-0.569,0.0947,0.8472,-0.28,-2.59,1.12,7,466
-0.5675,0.0961,0.8506,-0.42,-2.52,1.12,4,460
-0.5705,0.0956,0.8486,-0.56,-2.59,1.12,10,459
-0.5685,0.0932,0.8457,-0.42,-2.52,1.12,9,460
-0.568,0.0956,0.8491,-0.56,-2.31,1.19,3,456
-0.569,0.0971,0.8481,-0.42,-2.38,1.19,3,461
-0.5685,0.0952,0.8486,0.07,-2.66,0.7,5,457
-0.5695,0.0956,0.8486,-0.35,-2.45,1.26,7,455
-0.5671,0.0956,0.8486,-0.42,-2.17,1.05,9,455
-0.568,0.0942,0.8477,-0.28,-2.24,1.12,2,457
-0.571,0.0942,0.8496,-0.42,-2.38,1.12,3,460
-0.5705,0.0942,0.852,-0.63,-2.45,1.12,5,451
-0.5705,0.0966,0.8511,-0.42,-2.38,1.12,5,460
-0.5675,0.0961,0.8516,-0.35,-2.24,1.4,8,460
-0.569,0.0956,0.8467,-0.35,-2.31,1.26,3,457
-0.5695,0.0932,0.8491,-0.42,-2.52,0.98,3,460
-0.5695,0.0947,0.8496,-0.21,-2.52,0.98,8,464
-0.568,0.0961,0.8457,-0.63,-2.1,1.33,3,456
-0.568,0.0956,0.8486,-0.49,-2.38,0.91,2,454
-0.5705,0.0947,0.8457,-0.56,-2.45,1.12,7,453
-0.5685,0.0952,0.8467,-0.56,-2.52,1.26,3,455
-0.569,0.0927,0.8467,-0.35,-2.45,1.12,8,456
-0.568,0.0937,0.8506,-0.35,-2.31,1.26,3,452
-0.571,0.0947,0.8472,-0.63,-2.17,1.4,5,453
-0.568,0.0942,0.8506,-0.42,-2.38,1.19,1,456
-0.5695,0.0976,0.8486,-0.7,-2.03,1.19,8,449
-0.569,0.0937,0.8501,-0.35,-2.38,1.19,3,451
-0.57,0.0961,0.8477,-0.63,-2.87,0.91,12,456
-0.5695,0.0952,0.8486,-0.35,-2.38,1.19,7,451
-0.5685,0.0956,0.8457,-0.42,-2.38,1.19,3,454
-0.5695,0.0956,0.8481,-0.49,-1.89,1.05,6,451
-0.5685,0.0942,0.8491,-0.28,-2.38,1.26,6,453
-0.5705,0.0937,0.8535,-0.49,-2.52,1.26,7,456
-0.5695,0.0956,0.8491,-0.56,-2.38,1.19,8,451
-0.569,0.0976,0.8511,-0.91,-2.59,1.47,12,454
-0.569,0.0956,0.8501,-0.49,-2.38,1.26,6,453
-0.571,0.0956,0.8491,-0.21,-2.52,1.26,5,454
-0.569,0.0942,0.8467,-0.35,-2.52,1.12,9,445
-0.569,0.0932,0.8486,-0.7,-2.59,0.98,9,451
-0.5666,0.0937,0.8481,-0.42,-2.45,1.12,5,452
-0.57,0.0947,0.8506,-0.42,-2.45,1.19,5,447
-0.5695,0.0942,0.8457,0,-2.59,0.7,8,452
-0.57,0.0952,0.8486,-0.21,-2.45,1.05,5,448
-0.5685,0.0927,0.8467,0,-2.94,0.84,6,447
-0.568,0.0952,0.8481,-0.42,-2.38,1.19,0,447
-0.571,0.0966,0.8506,-0.42,-2.31,0.91,5,452
-0.5675,0.0956,0.8491,-0.28,-2.52,1.05,7,452
-0.5656,0.0956,0.8481,-0.28,-2.45,1.05,8,447
-0.57,0.0956,0.8486,-0.56,-2.45,1.19,3,445
-0.5724,0.0927,0.8477,-0.35,-2.45,1.12,3,449
-0.569,0.0937,0.8481,-0.49,-2.38,1.19,7,450
-0.5695,0.0952,0.8496,-0.28,-2.45,1.26,12,442
-0.5695,0.0942,0.8477,-0.49,-2.38,1.05,6,440
-0.5714,0.0976,0.8477,-0.42,-2.31,1.12,5,446
-0.5714,0.0942,0.8516,-0.35,-2.38,1.05,6,444
-0.5695,0.0947,0.8516,-0.42,-2.24,1.19,5,441
-0.5705,0.0956,0.8516,-0.7,-2.38,1.33,12,438
-0.5675,0.0961,0.8481,-0.49,-2.45,1.05,8,435
-0.5705,0.0966,0.8496,-0.28,-2.17,1.4,8,435
-0.571,0.0966,0.8491,-0.56,-2.38,1.26,10,430
-0.5705,0.0937,0.8506,-0.7,-2.38,1.33,7,430
-0.5685,0.0956,0.8477,-0.28,-2.17,1.26,5,432
-0.568,0.0966,0.8501,-0.42,-2.59,1.05,7,426
-0.57,0.0956,0.8496,-0.49,-2.38,1.12,3,425
-0.5685,0.0947,0.8511,-0.56,-2.45,1.26,8,421
-0.5675,0.0947,0.8501,-0.42,-2.31,1.26,9,426
-0.5695,0.0952,0.852,-0.42,-2.66,0.98,3,421
-0.5705,0.0961,0.8506,-0.21,-2.45,1.12,6,419
-0.57,0.0937,0.8501,-0.56,-2.03,1.33,3,417
-0.5705,0.0971,0.8501,-0.56,-1.96,1.4,10,428
-0.5685,0.0952,0.8447,-0.56,-2.24,1.33,5,420
-0.571,0.0952,0.8496,-0.56,-2.45,1.47,12,423
-0.569,0.0947,0.8491,-0.42,-2.24,1.05,2,422
-0.5675,0.0942,0.8491,-0.35,-2.52,1.05,7,417
-0.568,0.0966,0.8506,-0.49,-2.52,1.4,7,420
-0.568,0.0952,0.8496,-0.49,-2.31,1.4,2,426
-0.569,0.0947,0.8511,-0.42,-2.59,0.91,1,420
-0.5695,0.0961,0.8511,-0.42,-2.24,1.26,9,415
-0.5695,0.0927,0.8472,-0.21,-2.59,1.05,7,422
-0.5695,0.0947,0.8477,-0.35,-2.45,0.98,3,421
-0.5705,0.0961,0.8511,-0.42,-2.59,0.98,3,425
-0.5705,0.0947,0.8501,-0.56,-2.38,1.12,0,425
-0.5671,0.0942,0.8472,-0.42,-2.1,1.12,10,422
-0.5719,0.0961,0.853,-0.42,-2.45,1.05,8,424
-0.57,0.0952,0.8477,-0.49,-1.96,1.19,1,420
-0.5695,0.0966,0.8491,-0.21,-2.31,1.26,1,415
-0.5705,0.0952,0.8491,-0.7,-2.38,1.4,8,416
-0.5714,0.0942,0.8506,0,-2.45,1.12,7,417
-0.57,0.0937,0.8462,-0.07,-2.38,0.77,3,412
-0.5719,0.0927,0.8481,-0.21,-2.52,0.84,7,409
-0.5705,0.0942,0.8467,-0.49,-2.38,1.19,9,409
-0.57,0.0927,0.8496,-0.63,-2.24,1.05,7,409
-0.5675,0.0947,0.8477,-0.56,-2.45,1.33,9,413
-0.5695,0.0971,0.8477,0.07,-2.52,0.77,8,412
-0.5685,0.0932,0.8481,-0.42,-2.38,1.26,2,407
-0.57,0.0952,0.8467,-0.56,-2.24,1.4,5,409
-0.5719,0.0942,0.8496,-0.56,-2.03,1.47,8,406
-0.57,0.0956,0.8491,-0.42,-2.24,1.19,7,411
-0.568,0.0961,0.8516,-0.07,-2.59,0.84,10,413
-0.5714,0.0956,0.8506,-0.21,-2.8,0.91,12,412
-0.568,0.0932,0.8481,-0.42,-2.1,1.4,8,414
-0.5714,0.0956,0.8516,-0.49,-2.1,1.33,11,421
-0.5705,0.0947,0.8516,-0.42,-2.31,1.4,9,420
-0.5671,0.0952,0.8486,-0.63,-2.17,1.33,7,424
-0.57,0.0932,0.8516,-0.56,-2.45,1.33,3,419
-0.5714,0.0976,0.8501,-0.28,-2.38,1.26,3,416
-0.5695,0.0942,0.8481,-0.42,-2.66,1.26,8,419
-0.569,0.0932,0.8457,-0.49,-2.1,1.19,6,420
-0.5705,0.0942,0.8486,-0.49,-2.59,0.91,8,426
-0.5675,0.0937,0.8496,-0.35,-2.31,1.4,6,421
-0.5685,0.0956,0.8481,0.07,-2.66,0.77,6,425
-0.571,0.0971,0.8516,-0.56,-2.1,1.33,7,427
-0.569,0.0942,0.8477,-0.56,-2.52,1.26,5,430
-0.569,0.0947,0.8481,-0.56,-2.59,0.91,5,434
-0.5705,0.0956,0.8486,-0.49,-2.45,1.47,0,431
-0.5705,0.0922,0.8491,-0.35,-2.66,0.91,8,429
-0.5714,0.0917,0.8491,-0.42,-2.31,1.4,1,437
-0.5705,0.0927,0.8481,0.14,-2.94,0.77,9,432
-0.568,0.0922,0.8506,-0.21,-2.52,1.26,8,431
-0.57,0.0927,0.8496,-0.28,-2.52,1.12,4,433
-0.57,0.0947,0.8467,-0.7,-2.31,1.26,10,432
-0.568,0.0961,0.8477,-0.42,-2.52,1.12,7,435
-0.5685,0.0966,0.8472,-0.63,-2.24,1.47,3,431
-0.571,0.0942,0.8491,-0.49,-2.1,1.12,6,431
-0.57,0.0947,0.8486,-0.35,-2.73,1.19,1,431
-0.5695,0.0971,0.8516,-0.49,-2.03,1.26,7,437
-0.5671,0.0952,0.8501,-0.35,-2.24,1.12,12,435
-0.5675,0.0937,0.8481,-0.63,-2.52,1.33,6,431
-0.571,0.0952,0.8457,-0.35,-2.52,1.12,8,431
-0.5695,0.0942,0.8491,-0.56,-2.38,1.33,8,441
-0.5675,0.0966,0.8501,-0.21,-2.52,1.05,9,433
-0.5734,0.0956,0.8472,-0.49,-2.38,1.26,8,433
-0.57,0.0971,0.8481,-0.42,-2.52,1.26,8,440
-0.569,0.0956,0.8525,-0.56,-2.45,1.05,1,443
-0.5695,0.0947,0.8481,-0.42,-2.45,0.98,4,437
-0.5675,0.0952,0.8511,-0.42,-2.59,1.19,6,440
-0.5675,0.0952,0.8481,-0.28,-2.59,0.98,6,441
-0.569,0.0961,0.8481,-0.35,-2.38,0.98,0,434
-0.568,0.0956,0.8501,-0.49,-2.38,1.26,5,435
-0.5685,0.0947,0.8491,-0.35,-2.31,1.12,4,442
-0.5695,0.0952,0.8511,-0.63,-2.31,1.26,0,439
-0.5705,0.0966,0.8491,-0.42,-2.31,1.19,8,436
-0.5695,0.0903,0.8472,-0.77,-2.17,0.84,4,444
-0.571,0.0961,0.8506,-0.49,-2.66,1.12,2,440
-0.568,0.0956,0.8496,-0.7,-2.45,1.26,5,435
-0.5705,0.0942,0.8506,-0.7,-2.66,1.33,0,442
-0.568,0.0961,0.8486,-0.42,-2.52,0.98,4,448
-0.5685,0.0966,0.8491,-0.28,-2.52,1.26,5,440
-0.5695,0.0947,0.8491,-0.7,-2.45,1.19,2,441
-0.5685,0.0966,0.8496,-0.49,-2.52,1.19,2,444
-0.5729,0.0971,0.8506,-0.42,-2.31,1.26,9,445
-0.5695,0.0986,0.8525,-0.28,-2.31,1.12,10,439
-0.5661,0.0937,0.8452,-0.21,-2.38,1.05,2,443
-0.5695,0.0952,0.8477,-0.84,-2.17,1.61,6,443
-0.569,0.0986,0.8501,-0.63,-2.38,1.26,0,442
-0.5719,0.0947,0.8496,-0.63,-2.45,0.98,8,439
-0.5705,0.0952,0.852,-0.49,-2.52,1.19,3,443
-0.568,0.0922,0.8496,-0.49,-2.31,1.33,8,440
-0.5675,0.0956,0.8491,-0.35,-2.24,1.12,4,444
-0.5705,0.0947,0.8496,-0.21,-2.31,1.19,0,448
-0.571,0.0952,0.8486,-0.35,-2.17,1.19,5,439
-0.569,0.0981,0.8496,-0.21,-2.38,1.4,6,446
-0.57,0.0956,0.8486,-0.28,-2.17,1.05,6,446
-0.57,0.0952,0.8501,-0.63,-2.52,1.26,0,444
-0.568,0.0942,0.8496,-0.21,-2.52,0.98,8,444
-0.5705,0.0942,0.8481,-0.42,-2.38,1.12,8,442
-0.5671,0.0966,0.8491,-0.28,-2.52,0.98,5,441
-0.571,0.0966,0.8486,-0.56,-2.45,1.12,5,446
-0.5671,0.0927,0.8491,-0.42,-2.31,1.19,7,441
-0.57,0.0932,0.8525,-0.28,-2.31,1.12,4,437
-0.568,0.0961,0.8511,-0.28,-2.59,0.84,8,440
-0.5685,0.0966,0.8516,-0.49,-2.31,1.12,6,444
-0.5685,0.0937,0.8472,-0.7,-2.38,1.26,8,440
-0.5685,0.0922,0.8486,0.14,-2.8,1.26,9,434
-0.57,0.0937,0.8477,-0.42,-2.45,0.98,7,439
-0.57,0.0942,0.8467,-0.35,-2.17,1.33,7,442
-0.5724,0.0956,0.8516,-0.49,-2.31,1.19,6,438
-0.5719,0.0942,0.8496,-0.56,-2.45,1.33,4,431
-0.5675,0.0937,0.8501,-0.28,-2.66,1.19,6,433
-0.569,0.0966,0.8457,-0.28,-2.59,1.12,1,430
-0.5695,0.0917,0.8477,-0.56,-2.31,0.98,10,428
-0.571,0.0942,0.8491,-0.35,-2.45,1.12,6,432
-0.5666,0.0952,0.8481,-0.42,-2.24,1.26,3,425
-0.5675,0.0956,0.8486,-0.56,-2.38,1.19,12,425
-0.5695,0.0952,0.8491,-0.56,-2.52,1.33,8,423
-0.571,0.0942,0.8506,-0.35,-2.31,1.12,1,430
-0.5666,0.0956,0.8506,-0.77,-2.31,1.82,3,424
-0.5729,0.0952,0.8486,-0.21,-2.52,0.98,0,423
-0.5719,0.0961,0.8491,-0.56,-2.03,1.4,3,428
-0.57,0.0956,0.8477,-0.14,-2.59,0.84,1,429
-0.57,0.0947,0.8511,-0.42,-2.24,1.12,6,429
-0.569,0.0947,0.8462,-0.28,-2.1,1.26,8,431
-0.5661,0.0932,0.8501,-0.63,-2.38,1.05,6,432
-0.5685,0.0937,0.8491,-0.28,-2.73,1.05,6,430
-0.5734,0.0981,0.8442,-0.7,-2.24,1.33,4,431
-0.5719,0.0947,0.8506,-0.28,-2.66,1.12,6,432
-0.57,0.0937,0.8511,-0.42,-2.45,1.12,3,427
-0.569,0.0961,0.8457,-0.42,-2.24,1.05,0,430
-0.569,0.0971,0.8506,-0.14,-2.59,0.91,8,431
-0.5714,0.0971,0.8481,-0.77,-2.38,1.05,5,430
-0.569,0.0932,0.8501,-0.56,-2.31,1.19,8,431
-0.571,0.0937,0.8501,-0.7,-2.24,1.33,4,429
-0.5685,0.0932,0.8496,-0.28,-2.52,0.98,8,432
-0.569,0.0956,0.8496,-0.63,-2.52,1.47,6,429
-0.569,0.0947,0.8477,-0.49,-1.89,1.19,7,433
-0.5695,0.0961,0.8501,-0.35,-2.52,0.98,8,430
-0.5695,0.0961,0.8472,-0.42,-2.31,1.19,5,429
-0.5685,0.0952,0.8506,-0.21,-2.52,0.98,7,427
-0.569,0.0927,0.8491,-0.49,-2.1,1.05,4,422
-0.5685,0.0956,0.8516,-0.35,-2.38,1.12,4,426
-0.5685,0.0947,0.8486,-0.42,-2.52,1.12,0,424
-0.571,0.0947,0.8481,-0.49,-2.1,1.12,5,419
-0.57,0.0947,0.8472,-0.98,-2.31,1.47,5,424
-0.57,0.0937,0.8506,-0.42,-2.17,1.26,0,422
-0.5778,0.0815,0.8472,-0.77,-2.38,1.47,6,427
-0.5714,0.0937,0.852,-1.61,-2.1,1.4,4,419
-0.5651,0.1035,0.854,-0.14,-2.17,1.26,7,428
-0.571,0.0927,0.8496,0.28,-2.17,1.75,8,417
-0.5695,0.0952,0.8452,-0.56,-2.38,1.12,10,422
-0.5695,0.0947,0.8491,-0.35,-2.31,1.19,1,424
-0.5705,0.0961,0.8452,-0.28,-2.45,0.98,8,415
-0.5675,0.0952,0.8491,-0.77,-2.8,1.12,0,427
-0.571,0.0917,0.852,-0.49,-2.94,0.7,3,433
-0.5695,0.0947,0.8496,-0.63,-2.52,1.19,4,436
-0.5714,0.0971,0.8496,-0.98,-2.52,1.05,5,437
-0.5705,0.0966,0.8506,-0.7,-2.73,0.77,5,435
-0.5685,0.0917,0.8516,-0.63,-2.17,1.33,7,439
-0.5675,0.0942,0.8486,-0.42,-2.24,1.05,5,440
-0.569,0.0952,0.8506,-0.21,-2.45,1.19,6,450
-0.5695,0.0961,0.8506,-0.42,-1.89,1.54,7,448
-0.5685,0.0966,0.8491,-0.21,-2.24,1.26,7,448
-0.5705,0.0952,0.8496,-0.28,-2.52,1.26,3,447
-0.5724,0.0981,0.8477,-0.28,-2.52,1.12,6,447
-0.5685,0.0956,0.852,-0.21,-2.31,1.33,8,456
-0.5666,0.0947,0.8457,-0.63,-2.24,1.26,7,453
-0.57,0.0947,0.8491,-0.42,-2.45,0.98,3,452
-0.5695,0.0927,0.8501,-0.63,-2.45,1.26,12,450
-0.5675,0.0956,0.8467,-0.35,-2.45,1.33,6,450
-0.569,0.0937,0.8501,-0.42,-2.17,1.26,10,449
-0.5705,0.0937,0.8516,-0.49,-2.59,1.33,2,446
-0.5661,0.0976,0.8501,-0.28,-2.8,1.05,6,446
-0.568,0.0966,0.852,-0.42,-2.38,1.05,3,447
-0.568,0.0952,0.8452,-0.35,-2.38,1.26,10,449
-0.5695,0.0947,0.8491,-0.28,-2.45,1.12,7,453
-0.5651,0.0942,0.8486,-0.49,-2.31,1.12,8,450
-0.57,0.0966,0.8516,-0.49,-2.52,1.05,9,452
-0.5666,0.0966,0.8506,-0.49,-2.1,1.19,3,449
-0.5671,0.0947,0.8491,-0.56,-2.31,1.19,3,450
-0.571,0.0961,0.8491,-0.42,-2.45,0.98,9,447
-0.5685,0.0952,0.8486,-0.35,-2.17,1.05,3,447
-0.5685,0.0937,0.8486,-0.28,-2.17,1.4,9,448
-0.57,0.0937,0.8491,-0.63,-2.31,1.12,4,449
-0.569,0.0956,0.8501,-0.63,-2.52,1.26,8,448
-0.5705,0.0952,0.8496,-0.42,-2.24,1.12,9,448
-0.571,0.0952,0.852,-0.42,-2.52,1.12,10,448
-0.5671,0.0961,0.8501,-0.42,-2.17,1.33,9,444
-0.5685,0.0937,0.8477,-0.28,-2.17,1.05,3,448
-0.5685,0.0966,0.8486,-0.42,-2.87,1.05,2,456
-0.571,0.0971,0.8486,-0.28,-2.66,0.98,12,447
-0.5661,0.0927,0.8477,-0.63,-2.31,1.33,8,443
-0.568,0.0981,0.8472,-0.28,-2.73,0.84,7,445
-0.5695,0.0956,0.8491,-0.14,-2.52,1.12,5,448
-0.5695,0.0952,0.852,-0.14,-2.45,1.26,8,448
-0.5675,0.0971,0.8491,-0.42,-2.38,1.05,5,443
-0.568,0.0956,0.8486,-0.63,-2.1,1.4,1,449
-0.57,0.0981,0.8472,0.14,-2.66,0.56,8,447
-0.5719,0.0961,0.8516,-0.56,-2.66,1.47,8,443
-0.5656,0.0937,0.8511,-0.49,-2.59,1.12,5,453
-0.5671,0.0961,0.8516,-0.91,-2.03,1.61,3,450
-0.571,0.0971,0.8496,-0.35,-2.52,0.91,5,446
-0.5671,0.0947,0.8491,-0.42,-2.24,1.33,3,450
-0.5607,0.0976,0.8477,-0.56,-2.66,1.33,8,448
-0.5685,0.0976,0.8496,-0.49,-2.31,1.61,8,450
-0.569,0.0908,0.8477,-0.21,-2.73,0.98,0,445
-0.569,0.0927,0.8477,-0.77,-2.24,1.33,4,447
-0.5714,0.0961,0.8467,-0.21,-2.73,0.77,5,448
-0.5675,0.0976,0.854,-0.28,-2.03,1.19,0,448
-0.57,0.1005,0.8511,-0.77,-2.45,1.05,3,443
-0.571,0.0981,0.8496,-0.63,-2.38,1.33,4,447
-0.5719,0.0952,0.8477,-0.77,-2.17,1.33,10,447
-0.5695,0.0966,0.8481,-0.63,-2.31,1.4,7,448
-0.5695,0.0952,0.8491,-0.56,-1.96,1.12,8,450
-0.571,0.0937,0.8477,-0.35,-2.31,1.26,1,449
-0.5666,0.0947,0.8511,-0.63,-2.38,1.33,6,448
-0.5661,0.0956,0.8481,-0.42,-2.66,0.77,7,448
-0.568,0.0956,0.8506,-0.35,-2.45,1.12,8,443
-0.5685,0.0961,0.8457,-0.21,-2.52,0.98,5,447
-0.569,0.0937,0.8535,-0.56,-2.45,1.33,5,443
-0.5675,0.0961,0.8491,-0.56,-2.45,1.26,2,452
-0.5685,0.0937,0.8486,-0.42,-2.31,1.05,2,445
-0.568,0.0976,0.8467,-0.49,-2.52,1.26,8,453
-0.5705,0.0956,0.8462,-0.35,-2.66,1.05,9,450
-0.5671,0.0952,0.8496,-0.35,-2.38,0.98,11,448
-0.5675,0.0956,0.8481,-0.49,-2.59,1.05,3,447
-0.5656,0.0991,0.8506,-0.42,-2.52,0.91,6,447
-0.5705,0.0956,0.8516,-0.56,-2.31,1.26,8,452
-0.57,0.0956,0.8506,-0.63,-2.17,1.26,6,447
-0.5661,0.0956,0.8501,-0.28,-2.03,1.12,7,448
-0.5695,0.0966,0.8496,-0.42,-2.31,1.12,3,448
-0.5675,0.0952,0.8496,-0.49,-2.17,1.19,0,453
-0.5685,0.0971,0.8501,-0.56,-2.17,1.05,0,447
-0.5666,0.0956,0.8511,-0.35,-2.59,1.05,11,452
-0.5685,0.0961,0.8477,-0.42,-2.38,1.05,9,449
-0.571,0.0956,0.8491,-0.35,-2.38,0.98,5,454
-0.5666,0.0947,0.853,-0.7,-2.31,1.33,7,447
-0.569,0.0956,0.8472,-0.49,-2.52,1.05,12,450
-0.5695,0.0961,0.8491,-0.49,-2.17,1.19,8,447
-0.5705,0.0947,0.8511,-0.49,-2.45,1.05,8,449
-0.5666,0.0947,0.8496,-0.7,-2.45,1.33,3,447
-0.5685,0.0981,0.8481,-0.42,-2.45,1.12,8,447
-0.5719,0.0971,0.8511,-0.35,-2.31,0.98,5,448
-0.569,0.0956,0.8486,-0.14,-2.24,0.77,5,443
-0.569,0.0952,0.8496,-0.63,-2.52,1.12,10,445
-0.5651,0.0937,0.8486,-0.42,-2.24,1.19,4,441
-0.5714,0.0966,0.8481,-0.84,-2.59,1.47,10,445
-0.5685,0.0937,0.8496,-0.28,-2.45,0.91,8,444
-0.568,0.0956,0.8486,-0.35,-2.38,1.05,8,438
-0.57,0.0981,0.8462,-0.42,-2.45,1.19,6,444
-0.5714,0.0956,0.8477,-0.35,-2.52,0.98,11,435
-0.5714,0.0966,0.8491,-0.21,-2.59,0.7,5,441
-0.568,0.0961,0.8452,-0.42,-2.38,0.98,7,437
-0.57,0.0956,0.8545,-0.56,-2.17,1.26,2,437
-0.5714,0.0952,0.8506,-0.49,-2.52,0.91,5,439
-0.5705,0.0932,0.852,-0.49,-2.38,0.84,10,435
-0.5666,0.0961,0.8496,-0.56,-2.52,1.26,8,436
-0.5685,0.0981,0.8506,-0.35,-2.45,1.05,7,435
-0.5675,0.0961,0.8491,-0.35,-2.38,0.98,8,438
-0.57,0.0947,0.8481,-0.35,-2.1,1.26,12,437
-0.57,0.0956,0.8472,-0.56,-2.45,1.33,11,433
-0.5714,0.0971,0.8511,-0.49,-2.59,0.98,3,427
-0.569,0.0952,0.8486,-0.49,-2.59,1.05,12,430
-0.57,0.0942,0.8472,-0.21,-2.52,0.91,8,430
-0.5685,0.0952,0.8491,-0.35,-2.38,1.05,0,427
-0.57,0.0961,0.8516,-0.63,-2.38,1.4,9,419
-0.5714,0.0942,0.8491,-0.49,-2.03,1.47,8,422
-0.5719,0.0942,0.8467,-0.49,-2.31,1.05,8,428
-0.571,0.0956,0.8511,-0.56,-2.38,1.19,4,424
-0.568,0.0956,0.8481,-0.56,-2.17,1.19,5,423
-0.571,0.0956,0.8491,-0.21,-2.45,0.98,5,427
-0.5705,0.0942,0.8462,-0.35,-2.59,1.19,5,423
-0.569,0.0952,0.8496,-0.56,-2.66,1.12,10,427
-0.569,0.0956,0.8472,-0.42,-2.38,1.26,6,428
-0.568,0.0956,0.8477,-0.42,-2.38,1.19,1,428
-0.5685,0.0937,0.8496,-0.35,-2.31,1.33,3,428
-0.5705,0.0927,0.8496,-0.56,-2.45,1.26,3,430
-0.569,0.0966,0.8481,-0.35,-2.52,1.26,8,436
-0.5675,0.0947,0.8501,0,-2.73,0.77,8,434
-0.57,0.0913,0.8491,-0.21,-2.8,0.91,12,438
-0.5705,0.0937,0.8472,-0.14,-2.66,0.98,8,434
-0.5714,0.0956,0.8486,-0.35,-1.89,1.19,2,436
-0.5671,0.0942,0.8496,-0.35,-2.31,1.19,5,441
-0.5705,0.0952,0.8501,-0.42,-2.66,1.12,10,439
-0.5675,0.0966,0.8481,-0.84,-2.38,1.12,7,444
-0.571,0.0937,0.8506,-0.42,-2.31,1.19,10,446
-0.5666,0.0956,0.8511,-0.63,-2.24,1.4,7,445
-0.571,0.0952,0.8496,-0.56,-2.38,1.19,6,439
-0.5685,0.0922,0.8486,-0.35,-2.45,1.26,3,443
-0.5705,0.0971,0.8481,-0.49,-2.45,1.26,8,443
-0.569,0.0947,0.8472,-0.28,-2.45,0.98,5,445
-0.5705,0.0952,0.8486,-0.77,-2.38,1.05,10,446
-0.5666,0.0961,0.8491,-0.28,-2.59,1.05,8,448
-0.5685,0.0952,0.8511,-0.56,-2.45,1.19,7,447
-0.57,0.0971,0.8506,0,-2.66,1.12,9,449
-0.5666,0.0966,0.8467,-0.28,-2.31,1.12,3,452
-0.5695,0.0937,0.8491,-0.42,-2.52,1.19,3,453
-0.5705,0.0932,0.8506,-0.42,-2.1,1.19,8,456
-0.5675,0.0947,0.8496,-0.35,-2.17,1.19,10,458
-0.568,0.0942,0.8506,-0.42,-2.38,1.33,8,453
-0.5685,0.0956,0.8491,-0.49,-2.52,1.12,8,453
-0.5685,0.0947,0.8462,-0.28,-2.45,1.12,5,457
-0.5671,0.0942,0.8481,-0.49,-2.59,1.19,7,461
-0.5685,0.0942,0.8501,-0.56,-2.52,0.98,7,454
-0.5695,0.0976,0.8535,-0.42,-2.52,1.26,9,456
-0.5675,0.0903,0.8496,-0.63,-2.31,1.19,6,456
-0.5685,0.0947,0.8472,-0.42,-2.38,1.4,5,451
-0.569,0.0961,0.8457,-0.07,-2.59,1.26,8,453
-0.571,0.0942,0.8506,-0.07,-2.45,1.26,6,456
-0.569,0.0942,0.8481,0.14,-2.1,0.84,3,454
-0.57,0.0947,0.8511,-0.42,-2.31,1.12,6,451
-0.5695,0.0952,0.8491,-0.42,-2.52,1.33,8,454
-0.569,0.0947,0.8525,-0.28,-2.52,0.91,12,451
-0.5675,0.0961,0.8457,-0.14,-2.52,0.91,9,450
-0.5705,0.0961,0.8506,-0.21,-2.31,0.84,5,447
-0.5666,0.0942,0.8472,-0.42,-2.38,1.12,3,457
-0.5675,0.0952,0.8501,-0.21,-2.52,1.05,6,453
-0.568,0.0971,0.8472,-0.28,-2.52,1.26,10,457
-0.57,0.0956,0.8506,-0.49,-2.38,1.54,3,454
-0.568,0.0966,0.8506,-0.42,-2.45,0.98,8,457
-0.568,0.0937,0.8506,-0.49,-2.52,1.12,5,454
-0.569,0.0952,0.8506,-0.63,-2.03,1.4,6,455
-0.5675,0.0976,0.8516,-0.56,-2.31,1.12,11,458
-0.5675,0.0932,0.8457,-0.56,-2.45,1.4,0,457
-0.568,0.0947,0.8472,-0.49,-2.38,0.91,6,456
-0.57,0.0966,0.8496,-0.42,-2.38,1.33,7,458
-0.5675,0.0932,0.8511,-0.7,-2.45,1.12,3,451
-0.568,0.0947,0.8457,-0.49,-2.31,1.12,6,454
-0.569,0.0947,0.8477,-0.63,-2.31,1.05,0,451
-0.5695,0.0966,0.8491,-0.56,-2.24,1.12,3,456
-0.571,0.0942,0.852,-0.49,-2.38,1.33,8,456
-0.569,0.0956,0.8491,0,-2.38,1.19,5,456
-0.57,0.0956,0.8457,-0.35,-2.38,1.19,5,452
-0.5714,0.0942,0.8516,-0.42,-2.45,1.05,16,448
-0.569,0.0927,0.8506,-0.07,-2.24,0.84,2,451
-0.5685,0.0942,0.8472,-0.49,-2.24,1.19,11,455
-0.57,0.0927,0.8506,-0.42,-2.31,1.19,8,455
-0.57,0.0952,0.8511,-0.35,-2.31,1.05,4,449
-0.5671,0.0942,0.852,-0.56,-1.96,1.12,7,456
-0.5685,0.0937,0.8457,-0.56,-2.31,1.12,3,450
-0.5671,0.0966,0.8462,-0.42,-2.45,1.47,0,450
-0.5705,0.0942,0.8501,-0.49,-2.52,0.77,2,449
-0.568,0.0966,0.8506,-0.63,-2.59,1.05,6,443
-0.57,0.0956,0.8486,-0.49,-2.31,1.33,8,447
-0.5705,0.0961,0.8472,-0.35,-2.17,1.05,3,448
-0.5705,0.0942,0.8486,-0.56,-2.31,1.26,3,444
-0.5666,0.0956,0.8506,-0.42,-2.38,1.12,8,447
-0.5666,0.0947,0.8481,-0.56,-2.45,1.26,4,442
-0.5695,0.0966,0.8486,-0.28,-2.38,0.91,0,443
-0.5705,0.0942,0.8501,-0.49,-2.17,1.19,2,444
-0.5695,0.0961,0.8467,-0.42,-1.96,1.54,4,442
-0.568,0.0966,0.8481,-0.28,-2.45,0.77,7,440
-0.5714,0.0952,0.8506,-0.35,-2.52,0.7,6,441
-0.57,0.0942,0.8501,-0.63,-2.24,1.4,5,440
-0.5695,0.0961,0.8481,-0.35,-2.24,0.98,5,433
-0.568,0.0961,0.8491,-0.49,-2.38,1.19,4,440
-0.5695,0.0961,0.8486,-0.28,-2.45,0.77,3,439
-0.568,0.0976,0.8511,-0.56,-2.24,1.4,10,440
-0.5685,0.0952,0.8511,-0.49,-2.59,1.33,5,443
-0.57,0.0942,0.8438,-0.49,-2.59,1.26,3,438
-0.5661,0.0942,0.8525,-0.77,-2.31,1.61,6,441
-0.5724,0.0981,0.8516,-0.7,-2.59,1.47,1,438
-0.5661,0.0927,0.852,0.21,-2.73,0.49,8,444
-0.5695,0.0961,0.8535,-0.28,-2.52,1.4,3,444
-0.5671,0.0961,0.8491,-0.42,-2.73,0.7,3,443
-0.57,0.0947,0.8486,-0.28,-2.03,1.12,6,443
-0.568,0.0937,0.8477,-0.21,-2.52,1.19,6,447
-0.5719,0.0956,0.8501,-0.35,-2.66,1.12,3,446
-0.5675,0.0947,0.8506,-0.28,-2.38,1.19,7,445
-0.5685,0.0966,0.8496,-0.35,-2.66,1.05,9,449
-0.569,0.0952,0.8516,-0.56,-2.45,1.12,4,456
-0.5685,0.0937,0.8481,-0.42,-2.38,1.26,6,454
-0.5671,0.0932,0.8516,-0.42,-2.59,0.98,5,453
-0.569,0.0981,0.8477,-0.49,-2.38,1.33,3,454
-0.5744,0.0932,0.8496,-0.42,-2.31,1.4,9,443
-0.5695,0.0961,0.8511,-0.35,-2.31,1.12,0,456
-0.5651,0.0956,0.8486,-0.49,-2.45,1.19,7,457
-0.5705,0.0956,0.8491,-0.63,-2.31,1.4,8,456
-0.5685,0.0971,0.8501,-0.35,-2.31,1.12,8,463
-0.569,0.0932,0.8491,-0.49,-2.59,1.26,3,456
-0.569,0.0947,0.8501,-0.35,-2.52,0.91,10,453
-0.5671,0.0961,0.8501,-0.35,-2.38,1.12,7,458
-0.5666,0.0937,0.8481,-0.49,-2.45,0.98,8,454
-0.569,0.0966,0.8486,-0.35,-2.38,1.12,8,454
-0.5675,0.0961,0.8477,-0.42,-2.59,1.26,8,451
-0.5705,0.0942,0.8477,-0.21,-2.52,0.84,8,459
-0.568,0.0952,0.852,-0.49,-2.45,1.19,3,456
-0.569,0.0932,0.8491,-0.35,-2.17,1.12,8,459
-0.5705,0.0956,0.8472,-0.56,-2.52,1.12,7,457
-0.5661,0.0971,0.8501,-0.49,-2.24,1.12,3,459
-0.5719,0.0932,0.853,-0.49,-2.38,1.12,7,457
-0.5685,0.0942,0.8477,-0.14,-2.52,1.19,8,451
-0.569,0.0952,0.8481,-0.28,-2.31,1.05,8,452
-0.5685,0.0952,0.8501,-0.49,-2.38,1.05,0,452
-0.5675,0.0947,0.8486,-0.21,-2.38,0.91,7,449
-0.5724,0.0971,0.853,-0.49,-2.31,1.12,8,455
-0.5675,0.0966,0.8511,-0.42,-2.59,1.12,0,453
-0.5714,0.0952,0.8506,0.07,-2.52,1.26,0,450
-0.5651,0.0947,0.8501,-0.21,-2.38,0.98,6,447
-0.568,0.0966,0.8491,-0.28,-2.52,1.12,5,454
-0.5685,0.0937,0.8501,-0.35,-2.59,1.05,0,456
-0.57,0.0937,0.8501,-0.28,-2.38,1.05,4,452
-0.568,0.0927,0.8462,-0.35,-2.52,1.12,7,451
-0.5695,0.0956,0.8491,-0.35,-2.38,1.12,9,456
-0.568,0.0956,0.8506,-0.14,-2.45,0.84,6,449
-0.568,0.0952,0.8506,-0.42,-2.38,1.12,0,451
-0.5671,0.0942,0.8525,-0.63,-2.31,1.47,7,449
-0.5685,0.0961,0.8481,-0.49,-2.52,1.26,8,450
-0.568,0.0952,0.8467,-0.35,-2.38,1.05,6,453
-0.5685,0.0971,0.8511,-0.42,-2.24,1.12,5,450
-0.57,0.0961,0.8516,-0.35,-2.31,1.12,10,454
-0.568,0.0947,0.8506,-0.14,-2.24,1.12,6,453
-0.5656,0.0971,0.8501,-0.7,-2.38,1.4,7,450
-0.5661,0.0942,0.8511,-0.49,-2.52,1.12,5,448
-0.57,0.0947,0.8472,-0.35,-2.38,1.12,12,452
-0.571,0.0956,0.8477,-0.49,-2.52,1.19,7,445
-0.568,0.0942,0.8511,-0.42,-2.31,1.05,10,447
-0.5675,0.0942,0.8491,-0.35,-2.31,1.19,2,445
-0.5695,0.0966,0.8477,-0.35,-2.38,1.19,8,450
-0.569,0.0932,0.8511,-0.49,-2.45,1.12,0,452
-0.571,0.0961,0.8486,-0.56,-2.31,1.4,5,447
-0.568,0.0952,0.8511,-0.35,-2.31,1.19,6,449
-0.5714,0.0922,0.8501,-0.42,-2.45,0.91,4,447
-0.5714,0.0961,0.8491,-0.42,-2.52,1.33,10,450
-0.5685,0.0942,0.8481,-0.42,-2.24,1.05,7,443
-0.5666,0.0956,0.8467,-0.42,-2.17,1.33,9,446
-0.5661,0.0932,0.8477,-0.42,-2.45,0.84,5,442
-0.571,0.0937,0.8491,-0.49,-2.31,1.47,3,445
-0.5705,0.0952,0.852,-0.56,-2.31,1.68,7,438
-0.5675,0.0952,0.8501,0.07,-2.24,0.77,6,443
-0.5685,0.0971,0.8452,-0.21,-2.45,0.84,6,442
-0.5695,0.0917,0.8525,-0.7,-2.1,1.33,3,435
-0.5729,0.0956,0.8477,-0.49,-2.38,1.12,8,431
-0.5675,0.0922,0.8496,-0.35,-2.45,0.98,12,431
-0.5685,0.0947,0.8501,-0.28,-2.59,0.77,7,440
-0.568,0.0913,0.8501,-0.35,-2.59,0.77,8,436
-0.5685,0.0947,0.8481,-0.98,-2.52,1.47,8,431
-0.5695,0.0956,0.8472,-0.35,-2.45,1.12,0,432
-0.5685,0.0947,0.8511,-0.35,-2.31,1.12,7,424
-0.571,0.0937,0.8525,-0.14,-2.31,0.84,12,427
-0.5695,0.0952,0.8486,-0.56,-2.38,1.33,8,428
-0.5695,0.0947,0.8511,-0.35,-2.38,0.98,12,432
-0.57,0.0932,0.8516,-0.63,-2.17,1.47,6,422
-0.5714,0.0966,0.8496,-0.7,-2.31,1.4,5,415
-0.571,0.0937,0.852,-0.35,-2.52,1.26,6,415
-0.5675,0.0961,0.8491,-0.56,-2.24,1.12,4,414
-0.5705,0.0942,0.8496,-0.56,-2.31,1.33,0,416
-0.5705,0.0971,0.8462,-0.42,-2.52,1.12,7,412
-0.5666,0.0922,0.8511,-0.49,-2.31,1.12,2,405
-0.5714,0.0932,0.8477,-0.14,-2.45,1.12,6,411
-0.5705,0.0922,0.8472,-0.14,-2.45,1.4,5,414
-0.569,0.0947,0.8472,-0.56,-2.59,0.91,12,412
-0.5685,0.0932,0.8496,-0.56,-1.96,1.19,8,412
-0.5705,0.0952,0.8477,-0.28,-2.52,1.05,10,407
-0.571,0.0952,0.8501,-0.35,-2.38,1.12,8,404
-0.57,0.0942,0.8467,-0.42,-1.96,1.19,11,410
-0.57,0.0942,0.8516,-0.49,-2.24,1.19,10,408
-0.5705,0.0927,0.8486,-0.28,-2.38,1.19,1,403
-0.5661,0.0937,0.8462,-0.49,-2.45,0.98,0,402
-0.5729,0.0937,0.8496,-0.56,-2.38,1.19,7,391
-0.5666,0.0937,0.8472,-0.49,-2.38,1.05,3,393
-0.5685,0.0942,0.8467,-0.14,-2.17,1.26,9,398
-0.5705,0.0971,0.8496,-0.14,-2.59,0.77,9,399
-0.5661,0.0932,0.8481,-0.35,-2.31,1.4,2,391
-0.5724,0.0952,0.8496,-0.28,-2.52,1.26,10,398
-0.568,0.0937,0.8486,-0.21,-2.59,0.98,3,400
-0.569,0.0952,0.8511,-0.42,-2.45,1.4,6,402
-0.568,0.0956,0.8501,-0.35,-2.38,1.26,7,408
-0.5666,0.0942,0.8486,-0.35,-2.45,1.19,8,400
-0.57,0.0927,0.8477,-0.35,-2.66,1.19,7,407
-0.5714,0.0952,0.8506,-0.49,-2.38,1.33,6,412
-0.5705,0.0966,0.8501,-0.49,-2.17,1.33,5,411
-0.57,0.0947,0.8477,-0.63,-2.38,1.19,0,413
-0.5695,0.0942,0.8481,-0.14,-2.24,1.12,5,415
-0.571,0.0937,0.8481,-0.56,-2.59,1.12,9,424
-0.569,0.0947,0.8501,-0.42,-2.52,1.05,7,414
-0.5685,0.0952,0.8506,-0.42,-2.17,1.05,2,416
-0.57,0.0952,0.8486,-0.28,-2.59,0.98,5,415
-0.569,0.0966,0.8501,-0.21,-2.45,0.98,5,421
-0.571,0.0903,0.8496,-0.63,-2.66,1.05,8,416
-0.57,0.0942,0.8491,-0.63,-2.17,1.19,10,418
-0.5695,0.0937,0.8491,-0.07,-2.59,0.7,3,419
-0.5695,0.0971,0.8477,-0.21,-2.45,0.98,8,423
-0.5695,0.0913,0.8506,-0.28,-2.38,1.26,10,419
-0.5666,0.0952,0.8496,-0.35,-2.31,1.05,5,422
-0.5671,0.0956,0.8486,-0.35,-2.31,1.19,8,420
-0.5671,0.0913,0.8486,-0.42,-2.38,0.98,6,422
-0.57,0.0942,0.8506,-0.28,-2.24,1.33,3,415
-0.5724,0.0927,0.8486,-0.77,-2.38,1.33,6,419
-0.57,0.0932,0.8486,-0.28,-2.52,0.98,8,419
-0.57,0.0942,0.8491,-0.42,-2.45,1.19,10,422
-0.569,0.0937,0.8511,-0.56,-2.52,1.4,9,413
-0.569,0.0942,0.8511,-0.28,-2.52,0.98,4,411
-0.569,0.0952,0.8481,-0.35,-2.24,1.19,5,412
-0.5705,0.0908,0.8486,-0.56,-2.45,1.4,0,419
-0.569,0.0947,0.8486,-0.63,-2.24,1.26,12,424
-0.5685,0.0922,0.8477,-0.63,-2.1,1.26,4,420
-0.5685,0.0947,0.8472,-0.35,-2.45,1.47,5,415
-0.5705,0.0937,0.8501,-0.42,-2.31,1.19,10,417
-0.569,0.0932,0.8501,0.07,-2.52,0.56,16,415
-0.5685,0.0952,0.8491,-0.49,-2.31,1.12,7,414
-0.57,0.0947,0.8467,-0.35,-2.52,1.05,7,411
-0.569,0.0937,0.8506,-0.7,-2.31,1.33,5,414
-0.5675,0.0932,0.8486,-0.49,-2.38,0.84,0,407
-0.5675,0.0942,0.8496,-0.28,-2.24,0.98,6,412
-0.5714,0.0947,0.8516,-0.77,-2.17,1.47,3,412
-0.5675,0.0947,0.8486,-0.42,-2.45,1.12,7,406
-0.5695,0.0971,0.8501,-0.77,-2.31,1.61,0,409
-0.5705,0.0947,0.8467,-0.7,-2.31,1.33,6,412
-0.5705,0.0961,0.8481,0.07,-2.24,0.77,12,408
-0.57,0.0942,0.8457,-0.07,-2.38,0.91,9,403
-0.568,0.0942,0.8496,-0.35,-2.24,1.12,3,404
-0.569,0.0942,0.8491,-0.35,-2.38,1.05,7,404
-0.57,0.0937,0.8516,-0.28,-2.45,0.91,0,400
-0.5695,0.0956,0.8486,-0.63,-2.66,0.98,8,404
-0.569,0.0937,0.8486,-0.63,-2.38,1.26,2,392
-0.5695,0.0952,0.8472,-0.42,-1.96,1.05,9,398
-0.5705,0.0942,0.8481,-0.28,-2.73,1.26,7,401
-0.5685,0.0947,0.8486,-0.21,-2.31,1.47,6,393
-0.5714,0.0961,0.8477,-0.42,-2.45,0.91,3,395
-0.5671,0.0981,0.8481,-17.57,-2.38,1.33,3,396
-0.5714,0.0922,0.8506,-0.56,-2.38,1.26,4,390
-0.571,0.0956,0.8481,-0.42,-2.59,0.98,10,391
-0.569,0.0913,0.8501,-0.49,-2.24,1.12,7,392
-0.5675,0.0956,0.8496,-0.63,-2.24,1.33,7,389
-0.5671,0.0947,0.8467,-0.63,-2.45,1.12,8,391
-0.57,0.0927,0.8481,-0.28,-2.17,1.12,5,391
-0.5705,0.0922,0.8467,-0.35,-2.17,1.12,8,383
-0.57,0.0952,0.8477,-0.49,-2.38,1.4,4,394
-0.5685,0.0952,0.8491,-0.35,-2.24,1.4,5,393
-0.57,0.0932,0.8481,-0.49,-2.1,1.26,5,392
-0.57,0.0947,0.8506,0.07,-2.52,0.7,8,394
-0.5671,0.0947,0.8481,-0.49,-2.45,0.91,7,392
-0.5714,0.0932,0.8496,-0.63,-2.59,1.33,3,387
-0.569,0.0942,0.8457,-0.42,-2.24,1.26,3,393
-0.5719,0.0937,0.8477,-0.28,-2.59,1.05,8,391
-0.57,0.0937,0.8472,-0.49,-2.52,1.33,10,391
-0.5705,0.0942,0.8486,-0.49,-2.38,1.26,0,395
-0.5719,0.0942,0.8486,-0.42,-2.52,1.05,4,393
-0.5705,0.0937,0.8467,-0.49,-2.17,1.33,7,394
-0.5695,0.0956,0.8486,-0.07,-2.24,0.98,5,397
-0.5705,0.0952,0.8457,-0.49,-2.31,1.05,6,396
-0.57,0.0937,0.8472,-0.35,-2.38,1.19,5,393
-0.571,0.0937,0.8491,-0.42,-2.45,1.33,9,396
-0.5685,0.0942,0.8501,-0.49,-2.45,1.19,3,394
-0.5685,0.0956,0.8481,-0.49,-2.24,1.19,8,396
-0.5695,0.0932,0.8477,-0.63,-2.59,1.19,12,397
-0.5695,0.0947,0.8506,-0.56,-2.52,1.26,7,394
-0.5675,0.0952,0.8467,-0.21,-2.24,1.05,8,395
-0.57,0.0952,0.8447,-0.49,-2.31,1.26,2,402
-0.571,0.0952,0.8511,-0.21,-2.24,1.05,7,404
-0.5695,0.0932,0.8486,-0.28,-2.45,1.33,5,399
-0.5719,0.0937,0.8481,-0.91,-2.45,1.47,8,402
-0.569,0.0942,0.8472,-0.56,-2.38,1.33,5,410
-0.571,0.0947,0.8511,-0.63,-2.52,1.33,6,405
-0.5641,0.0947,0.8486,-0.21,-2.38,1.12,7,408
-0.5685,0.0952,0.8472,-0.42,-2.45,1.12,9,410
-0.5705,0.0976,0.8477,-0.42,-2.8,1.19,4,415
-0.568,0.0961,0.8496,-0.42,-2.59,1.4,9,415
-0.5675,0.0942,0.8486,-0.21,-2.59,0.98,5,415
-0.5685,0.0932,0.8491,-0.7,-2.45,1.19,7,420
-0.571,0.0947,0.8511,-0.21,-2.17,0.77,10,417
-0.5714,0.0932,0.8506,-0.35,-2.38,1.12,3,420
-0.5646,0.0947,0.8486,-0.35,-2.45,1.26,3,416
-0.5675,0.0961,0.8477,-0.42,-2.38,1.19,9,415
-0.5714,0.0942,0.8472,-0.77,-2.38,1.12,8,416
-0.5695,0.0937,0.853,-0.42,-2.52,1.19,8,416
-0.57,0.0942,0.8486,-0.49,-2.38,1.26,4,418
-0.5675,0.0917,0.8472,-0.42,-2.17,1.12,6,416
-0.5719,0.0961,0.8496,-0.42,-2.24,1.05,6,414
-0.569,0.0952,0.8481,-0.7,-2.45,0.98,7,413
-0.5705,0.0932,0.8491,-0.49,-2.17,1.47,8,413
-0.57,0.0956,0.8535,-0.49,-2.45,0.77,7,407
-0.5724,0.0942,0.8511,-0.28,-2.45,1.26,5,411
-0.568,0.0932,0.8491,-0.42,-2.31,1.26,9,411
-0.5685,0.0937,0.8477,-0.21,-2.45,1.05,8,408
-0.5646,0.0932,0.8481,-0.28,-2.52,0.98,7,407
-0.5719,0.0893,0.853,-0.28,-2.38,1.19,8,402
-0.569,0.0981,0.8486,-0.7,-2.31,1.19,2,403
-0.57,0.0922,0.8496,-0.42,-2.38,1.4,9,401
-0.5714,0.0937,0.8491,-0.77,-2.52,1.68,9,399
-0.568,0.0922,0.8486,-0.07,-2.38,1.19,3,400
-0.5705,0.0898,0.8477,-0.49,-2.24,1.26,12,400
-0.5685,0.0986,0.8472,-0.49,-2.24,1.05,7,403
-0.5714,0.0927,0.8535,-0.35,-2.52,1.12,1,400
-0.5714,0.0952,0.8467,-0.35,-2.45,0.98,0,391
-0.57,0.0956,0.8486,-0.42,-2.31,1.33,8,400
-0.5714,0.0966,0.8477,-0.63,-2.52,1.33,8,404
-0.5705,0.0874,0.8491,0.07,-2.38,1.19,1,391
-0.57,0.0991,0.8447,-0.7,-2.17,1.19,14,401
-0.568,0.0991,0.8516,-0.28,-2.17,1.4,7,395
-0.571,0.0883,0.8535,-0.14,-2.31,1.05,3,394
-0.5714,0.0991,0.8486,-0.49,-1.96,1.26,6,395
-0.5666,0.0961,0.8457,-0.21,-2.38,1.4,7,399
-0.5719,0.0839,0.8462,-0.91,-2.03,1.4,10,397
-0.5636,0.1,0.8501,-0.7,-2.45,1.19,6,396
-0.5719,0.0952,0.852,-0.56,-2.31,1.19,6,398
-0.57,0.0888,0.8506,-0.56,-2.31,1.61,10,397
-0.568,0.0996,0.8457,-0.21,-2.38,0.91,0,404
-0.571,0.0981,0.8525,-0.21,-2.45,1.12,4,408
-0.5719,0.0981,0.852,-0.63,-2.73,1.26,6,420
-0.57,0.0956,0.8501,-0.63,-2.66,1.54,3,416
-0.57,0.0937,0.8462,0.21,-2.73,1.33,7,436
-0.5695,0.0947,0.8462,-0.42,-2.59,1.61,4,458
-0.5705,0.0996,0.8525,-0.28,-2.45,1.82,8,462
-0.571,0.0976,0.8477,-0.21,-2.87,1.47,6,465
-0.571,0.0966,0.8447,-0.28,-2.73,1.75,8,480
-0.569,0.0961,0.8477,-0.49,-2.94,1.96,6,490
-0.5685,0.0937,0.8477,0.21,-3.22,1.89,6,512
-0.5695,0.0913,0.8472,-0.63,-3.08,1.75,6,518
-0.5671,0.0991,0.8511,0.35,-3.5,2.31,6,560
-0.5695,0.1,0.856,-0.21,-2.59,1.89,3,589
-0.5646,0.0986,0.8467,-0.49,-2.59,2.1,5,609
-0.5661,0.0956,0.854,-0.63,-1.82,1.82,9,615
-0.5666,0.101,0.852,0.07,-2.24,1.89,9,630
-0.5661,0.0981,0.8511,-0.35,-2.03,1.82,8,627
-0.5641,0.1074,0.8413,-0.84,-1.75,1.26,9,640
-0.5627,0.1064,0.8516,-0.07,-1.26,1.4,4,631
-0.5705,0.0971,0.8481,-0.49,-1.33,1.4,10,619
-0.5622,0.0991,0.8516,0.49,-0.91,1.33,7,620
-0.5724,0.1059,0.8491,-0.28,-1.54,1.54,0,611
-0.5719,0.0952,0.8467,-0.49,-1.96,1.4,7,599
-0.5739,0.1025,0.8467,-0.35,-2.45,1.4,14,605
-0.571,0.0986,0.8462,-0.14,-2.31,1.54,11,607
-0.5739,0.1049,0.8506,-0.28,-2.8,1.75,7,615
-0.5734,0.1074,0.8433,0.42,-3.78,1.47,12,623
-0.568,0.102,0.853,0,-3.36,1.68,3,647
-0.569,0.1015,0.8447,-0.21,-3.15,1.96,8,659
-0.5573,0.0991,0.8545,-0.91,-3.01,1.61,3,671
-0.5671,0.1059,0.8491,-0.35,-3.5,1.82,3,689
-0.5671,0.1122,0.8477,-0.49,-3.22,1.19,7,708
-0.5666,0.0922,0.8511,0.28,-2.8,1.96,6,715
-0.5612,0.1113,0.8525,0,-3.01,1.54,7,736
-0.5607,0.1127,0.8477,0.35,-2.38,1.68,8,729
-0.5612,0.1059,0.8516,-0.14,-2.52,0.63,2,744
-0.5632,0.1074,0.854,-0.49,-2.38,1.33,0,740
-0.5583,0.1152,0.8491,-0.21,-1.47,1.33,1,744
-0.5671,0.1025,0.8525,-1.75,-1.33,1.26,8,738
-0.5685,0.1118,0.8564,-0.7,-1.82,0.98,5,728
-0.5641,0.1108,0.856,-0.07,-0.7,0.91,8,705
-0.5739,0.1186,0.8516,0.91,0,0.98,0,677
-0.5646,0.102,0.8486,0.07,0.84,1.05,5,647
-0.5641,0.1054,0.8418,1.54,3.22,1.26,0,605
-0.5778,0.1181,0.8467,-2.52,6.86,0.63,3,575
-0.6027,0.1205,0.8325,2.24,3.64,0.7,6,547
-0.5993,0.1249,0.8389,5.25,5.46,0.28,3,549
-0.5993,0.1425,0.8281,4.13,3.5,0.28,7,538
-0.6032,0.121,0.8296,-1.05,-1.75,1.05,4,552
-0.5993,0.0991,0.8291,2.1,-2.17,1.47,7,551
-0.5988,0.1186,0.8213,-0.14,-4.34,1.33,10,560
-0.5954,0.1098,0.8311,-0.42,-6.09,1.54,9,586
-0.59,0.1098,0.8301,-1.12,-6.58,1.68,5,613
-0.589,0.122,0.833,-1.33,-7.56,2.03,8,653
-0.59,0.1196,0.832,-2.52,-10.08,1.75,5,667
-0.5695,0.1171,0.8433,0.07,-9.87,1.54,12,706
-0.57,0.1235,0.8408,-1.54,-7.56,1.54,4,742
-0.5612,0.0937,0.8418,-1.75,-6.65,1.05,3,743
-0.5632,0.12,0.8564,-3.08,-5.6,1.47,9,759
-0.5627,0.1113,0.8535,-3.15,-4.62,1.47,6,783
-0.569,0.1186,0.8472,-1.61,-3.99,1.33,11,781
-0.5675,0.1113,0.8501,-0.28,-3.57,1.12,7,784
-0.5656,0.1166,0.8516,-0.42,-4.06,0.98,10,800
-0.568,0.1122,0.8516,-1.19,-3.99,1.26,7,808
-0.5675,0.1171,0.8467,-1.19,-4.41,1.47,16,798
-0.5641,0.1035,0.8501,-1.75,-3.64,1.12,7,811
-0.5597,0.1142,0.8491,-0.49,-3.15,0.91,11,817
-0.5583,0.1132,0.8496,-0.56,-2.94,0.77,4,815
-0.5597,0.1113,0.852,0,-2.73,0.42,8,815
-0.5583,0.1122,0.8506,-0.35,-1.75,1.05,14,812
-0.5592,0.1142,0.8579,-1.12,-1.96,1.05,7,811
-0.5636,0.1137,0.8525,-0.21,-2.17,0.98,10,810
-0.5627,0.1083,0.854,-0.28,-2.38,0.84,9,799
-0.5612,0.1176,0.8452,-0.07,-1.89,0.91,12,798
-0.5588,0.0996,0.8506,-0.56,-1.75,1.19,6,800
-0.5553,0.1166,0.8496,-0.49,-1.4,0.91,6,780
-0.5651,0.1054,0.8545,0.07,-1.19,1.05,5,780
-0.5632,0.1137,0.8496,-0.14,-1.68,1.26,8,775
-0.5632,0.1113,0.8501,-0.49,-1.68,1.26,16,770
-0.5632,0.1103,0.8457,0.07,-0.42,1.12,11,762
-0.5749,0.1035,0.854,-0.28,0.7,0.7,7,749
-0.5636,0.1196,0.8501,-1.19,-2.45,0.7,10,744
-0.5685,0.1137,0.8501,-0.56,-2.52,1.12,12,745
-0.571,0.1078,0.8477,-0.49,-2.59,0.98,7,735
-0.5661,0.1147,0.8462,-0.56,-2.31,1.12,9,736
-0.57,0.1098,0.8452,-0.28,-2.38,0.84,5,734
-0.5675,0.1171,0.8481,-0.56,-2.66,1.05,9,727
-0.5632,0.1147,0.8462,-0.28,-2.1,0.84,10,722
-0.5695,0.1118,0.8467,-0.56,-1.89,1.05,12,710
-0.5666,0.1127,0.8506,-1.26,-2.1,0.84,8,694
-0.57,0.1093,0.8472,0.07,-2.03,0.91,5,687
-0.57,0.1098,0.8472,-0.56,-1.89,0.98,7,683
-0.57,0.1113,0.8481,-0.28,-1.82,1.05,12,661
-0.5719,0.1103,0.8481,-0.07,-2.17,0.84,7,652
-0.5729,0.1103,0.8477,-0.28,-2.24,0.84,8,635
-0.5705,0.1113,0.8452,-0.7,-1.75,1.05,0,632
-0.5695,0.1118,0.8457,-0.14,-1.82,1.05,3,608
-0.57,0.1093,0.8433,-0.49,-2.03,0.98,3,595
-0.5714,0.1088,0.8491,-0.35,-2.03,1.12,4,580
-0.5729,0.1122,0.8467,-0.63,-1.89,1.05,7,572
-0.571,0.1093,0.8477,-0.7,-1.89,1.19,8,559
-0.5714,0.1078,0.8442,-0.42,-2.38,0.84,8,550
-0.5719,0.1118,0.8438,-0.56,-1.89,0.98,4,545
-0.5768,0.1108,0.8496,-0.77,-2.1,0.7,6,550
-0.5729,0.1108,0.8457,-0.63,-2.38,0.77,0,550
-0.5734,0.1059,0.8462,-0.98,-2.38,0.91,6,541
-0.5739,0.1122,0.8438,-1.05,-2.59,0.98,0,539
-0.568,0.1054,0.8511,-0.98,-3.08,0.7,6,528
-0.5705,0.1054,0.8447,-1.54,-3.22,0.84,9,524
-0.5724,0.1078,0.8467,-0.91,-2.73,0.91,8,510
-0.5729,0.1044,0.8452,-0.91,-2.59,1.05,4,499
-0.5729,0.1074,0.8447,-0.7,-2.59,0.98,5,504
-0.5729,0.1064,0.8491,-0.56,-2.24,1.05,5,495
-0.57,0.1035,0.8452,-0.49,-2.38,1.05,5,497
-0.57,0.1054,0.8447,-0.56,-2.45,1.26,2,490
-0.5695,0.1054,0.8462,-0.21,-2.38,0.77,7,475
-0.5714,0.1069,0.8457,-0.35,-2.45,0.84,5,474
-0.569,0.1074,0.8447,-0.56,-2.38,1.33,8,462
-0.571,0.1064,0.8467,-0.63,-2.45,1.05,6,470
-0.5719,0.1074,0.8467,-0.63,-2.45,1.05,8,472
-0.5729,0.1044,0.8452,-0.35,-2.52,0.98,7,464
-0.571,0.1059,0.8491,-0.56,-2.38,1.12,8,453
-0.5749,0.1054,0.8452,-0.7,-2.8,0.98,3,447
-0.5695,0.1054,0.8491,-0.77,-2.8,1.05,8,456
-0.5695,0.1035,0.8472,-0.84,-2.59,0.98,5,446
-0.57,0.1039,0.8457,-0.42,-3.08,0.84,8,450
-0.5529,0.0742,0.8394,-2.59,-2.1,1.12,6,444
-0.568,0.1142,0.8481,-0.21,-2.8,0.98,3,448
-0.5739,0.1005,0.8442,-0.56,-2.45,1.26,6,454
-0.5714,0.101,0.8447,-0.77,-2.31,1.33,3,456
-0.571,0.1035,0.8486,-0.35,-2.59,0.98,7,458
-0.569,0.102,0.8496,-0.7,-2.24,1.4,8,460
-0.5695,0.101,0.8447,-0.56,-2.17,1.26,12,454
-0.5671,0.1025,0.8472,-0.21,-2.31,1.19,9,452
-0.5685,0.1044,0.8467,-0.21,-2.45,1.05,4,446
-0.568,0.1035,0.8457,-0.56,-2.45,1.12,8,453
-0.5661,0.1039,0.8472,-0.84,-2.45,0.98,7,449
-0.5724,0.1059,0.8462,-0.35,-2.59,0.77,7,454
-0.5705,0.1044,0.8472,-1.12,-2.17,1.12,3,456
-0.5685,0.1049,0.8457,-0.7,-2.73,1.26,7,453
-0.5705,0.0996,0.8491,-0.42,-2.66,1.19,11,456
-0.5719,0.1015,0.8438,-0.35,-2.94,1.19,6,461
-0.569,0.1005,0.8486,-0.56,-2.66,1.33,5,459
-0.5675,0.103,0.8491,-0.7,-2.45,1.19,2,466
-0.569,0.103,0.8462,-0.42,-2.59,1.47,6,475
-0.5656,0.1039,0.8491,-0.77,-2.59,1.4,8,475
-0.57,0.1035,0.8516,-0.42,-2.66,1.47,5,488
-0.568,0.102,0.8486,-0.56,-2.8,1.19,8,487
-0.5685,0.102,0.8481,-0.21,-2.8,1.19,8,506
-0.5685,0.102,0.8462,-0.56,-2.66,1.75,12,511
-0.5705,0.1049,0.8481,-0.35,-2.66,1.12,6,516
-0.5666,0.1054,0.8486,-0.35,-2.87,1.47,6,522
-0.5671,0.1113,0.8545,-0.42,-2.87,1.61,5,531
-0.571,0.0966,0.8472,-0.21,-3.01,1.54,5,549
-0.5685,0.1093,0.8477,-0.35,-3.29,1.33,6,547
-0.5671,0.1069,0.8486,-0.42,-2.94,1.33,8,566
-0.5724,0.1039,0.8477,-0.98,-2.8,1.33,7,590
-0.5656,0.1074,0.8516,-0.28,-2.73,1.4,9,603
-0.5641,0.1059,0.8481,-0.21,-2.87,1.26,6,616
-0.5661,0.1074,0.8525,-0.21,-2.94,1.12,7,620
-0.5641,0.1025,0.8481,-0.28,-2.73,1.47,6,630
-0.5632,0.1039,0.852,-0.14,-2.73,1.26,8,625
-0.5651,0.102,0.8501,-0.42,-2.38,1.33,7,635
-0.5651,0.1074,0.8501,-0.49,-2.24,1.33,6,641
-0.5646,0.1054,0.855,-0.14,-2.8,1.05,4,638
-0.5622,0.1083,0.8486,-0.49,-2.66,1.19,7,647
-0.5636,0.1064,0.852,-0.56,-2.45,1.26,8,651
-0.5636,0.1039,0.8511,-0.35,-2.59,1.54,2,658
-0.5627,0.1083,0.8525,-0.42,-2.52,1.19,3,654
-0.5646,0.1044,0.8496,-0.77,-2.52,1.12,6,656
-0.5602,0.1074,0.853,-0.35,-2.94,0.77,3,658
-0.5661,0.1059,0.853,-0.42,-2.52,1.47,4,662
-0.5646,0.1049,0.8501,-0.7,-2.38,1.26,6,668
-0.5627,0.103,0.8496,-0.56,-2.24,1.54,7,664
-0.5641,0.1049,0.8511,-0.56,-2.31,1.47,0,664
-0.5641,0.1005,0.8516,-0.84,-2.38,1.05,6,665
-0.5646,0.1054,0.852,-0.49,-2.03,1.05,6,670
-0.5646,0.1044,0.852,-0.42,-2.38,1.05,9,680
-0.5622,0.1,0.8491,-0.7,-2.59,1.4,7,676
-0.5636,0.1035,0.8535,-0.77,-2.24,1.4,7,682
-0.5592,0.1088,0.8545,-1.19,-2.17,1.33,5,684
-0.5636,0.1069,0.8535,-0.21,-2.03,1.19,8,686
-0.5646,0.1054,0.854,-0.07,-2.45,1.26,7,692
-0.5632,0.1059,0.8545,-0.14,-2.31,0.98,4,688
-0.5656,0.1025,0.8491,-0.35,-2.45,0.77,6,697
-0.5641,0.1054,0.8555,-0.7,-2.38,1.05,3,692
-0.5641,0.1044,0.8511,-0.07,-2.59,0.91,0,693
-0.5627,0.1044,0.8506,-0.7,-2.24,0.98,7,689
-0.5641,0.1088,0.8486,-0.07,-2.66,0.63,2,684
-0.5632,0.1059,0.8491,-0.63,-2.24,1.19,5,688
-0.5651,0.1044,0.8501,-0.49,-2.17,0.77,6,683
-0.5636,0.1015,0.852,-0.49,-2.17,0.7,8,671
-0.5617,0.1015,0.852,-0.07,-2.1,0.91,9,672
-0.5641,0.1064,0.8506,-0.49,-2.1,1.12,3,670
-0.5636,0.102,0.8506,-0.56,-2.1,0.84,7,665
-0.568,0.102,0.8525,-0.14,-1.96,1.12,3,650
-0.5651,0.102,0.8496,-0.91,-2.03,0.98,10,646
-0.5685,0.1054,0.8516,-0.49,-2.03,0.84,5,633
-0.569,0.0986,0.8481,-0.49,-2.17,1.12,8,627
-0.5636,0.1064,0.8545,-0.77,-1.75,0.98,12,625
-0.5636,0.102,0.8496,-0.14,-1.75,1.12,8,606
-0.5656,0.102,0.8438,-0.42,-1.82,0.98,6,591
-0.569,0.0947,0.853,-0.77,-1.54,1.19,6,582
-0.5646,0.1069,0.8496,-0.56,-1.12,0.98,4,574
-0.5705,0.1049,0.8491,-0.28,-1.26,0.7,9,553
-0.5749,0.102,0.8496,-0.49,-1.47,1.05,6,531
-0.5714,0.102,0.8496,-0.49,-1.75,1.19,4,518
-0.569,0.1044,0.8486,-0.63,-2.1,1.05,3,503
-0.5719,0.1064,0.8486,-0.21,-1.54,1.12,11,504
-0.5729,0.102,0.8501,-0.42,-1.96,1.05,5,487
-0.5705,0.1,0.8477,-0.35,-2.1,1.12,3,475
-0.5714,0.0986,0.8506,-0.42,-2.24,0.91,6,478
-0.5695,0.1,0.8457,0.07,-2.45,0.7,9,481
