ax,ay,az,gx,gy,gz,heel,toe
-0.1820,0.1044,1.0477,-2.3800,-8.1200,0.4900,7,320
-0.2420,0.0956,1.0882,-7.2100,-7.0700,-0.6300,9,313
-0.2094,0.0693,0.9980,-13.3700,-2.0300,5.1100,6,288
-0.3109,-0.0805,0.7427,-28.2800,-4.1300,8.4000,6,254
-0.1845,0.0146,0.9984,31.5700,6.0200,1.2600,0,243
-0.2157,0.0249,1.0702,61.3200,4.5500,-0.4900,7,231
-0.3719,0.2567,1.0433,-2.1000,-14.2800,-4.8300,8,215
-0.0151,0.0366,1.0619,-18.9700,-23.8700,-0.4900,0,192
-0.3182,0.1313,1.1058,-25.6200,-25.6900,4.5500,10,151
-0.2938,0.1606,1.1473,-31.9900,-47.6000,3.2200,8,92
-0.3470,0.2601,1.1502,-52.0100,-73.1500,4.1300,8,35
-0.1786,0.0337,1.0912,-73.2900,-71.1200,9.1000,10,26
-0.0410,0.0224,1.0053,-61.4600,-51.0300,6.9300,5,13
0.1118,-0.2904,0.8764,-40.6700,-30.8700,25.2700,8,11
-0.1044,-0.1200,0.8804,41.7900,7.6300,36.7500,0,14
-0.2147,0.3850,0.9145,33.0400,9.1700,21.3500,11,21
-0.2411,0.0415,1.2288,-17.3600,0.3500,19.9500,3,7
-0.0942,0.0249,0.8989,-7.2100,5.4600,15.6100,7,12
-0.0508,0.0503,0.7847,-20.5800,22.4000,7.4200,3,7
-0.1347,0.0254,0.8901,-20.6500,30.6600,9.5200,6,9
-0.3606,0.3235,0.9653,-32.5500,12.1800,5.6700,0,7
-0.1645,0.0669,0.9682,2.5200,13.9300,19.0400,7,4
-0.2186,0.2557,0.9809,12.3200,29.6100,50.5400,8,6
-0.2089,0.1078,0.9565,0.7700,53.6200,76.5800,8,12
-0.2948,0.0376,1.0204,-25.2700,47.7400,85.6100,4,14
0.0351,-0.1488,1.0331,-7.8400,34.0900,75.8100,2,6
0.1601,0.0752,1.0668,17.1500,41.7200,61.1100,3,12
-0.0190,0.0059,1.1395,32.5500,29.8900,72.8700,5,6
0.0771,0.1054,0.9399,20.2300,11.6200,118.0200,10,7
0.1713,-0.2943,0.6832,-1.5400,50.2600,141.4700,3,8
0.1347,-0.2865,0.7071,3.9200,71.6100,100.3800,4,7
0.1015,-0.2308,0.7598,5.1800,90.3700,46.4100,5,7
-0.1513,-0.1132,0.7374,-9.3800,98.0700,29.2600,6,5
-0.2181,-0.0986,0.6320,21.2800,98.7000,44.5200,7,12
-0.1557,-0.0849,0.7110,12.4600,93.3800,40.6700,3,10
-0.2733,0.0356,0.6827,-17.1500,82.3900,18.2700,2,10
-0.2591,-0.2128,0.5690,-0.6300,82.5300,6.0200,9,5
-0.4709,0.0425,0.5661,11.6900,89.7400,-14.2800,6,0
-0.7257,0.0947,0.5846,9.1700,76.7900,-42.0700,4,0
-0.8394,0.0766,0.6407,0.5600,55.3700,-36.4000,5,11
-0.9184,0.0859,0.7930,0.5600,49.5600,-7.0700,9,12
-1.4328,0.3899,0.8930,-19.6000,33.3900,-9.3100,6,12
-1.3869,0.0517,0.8891,-24.0800,0.0700,-6.9300,0,6
-1.2078,0.1581,0.8369,5.2500,-27.2300,-1.8900,7,10
-1.3796,0.1737,0.7818,32.7600,-27.2300,1.6800,5,7
-1.2068,0.1469,0.7471,40.4600,-3.7800,16.7300,3,9
-0.9755,-0.0049,0.7325,13.0200,24.0100,29.6100,10,14
-1.6094,0.4094,1.4518,-142.1000,-142.0300,-58.5200,2,7
-1.4142,0.3074,1.2351,36.8200,-90.8600,-17.8500,7,8
-0.3909,-0.0093,1.1741,24.2900,-67.7600,-5.6700,4,6
-0.4426,-0.0068,1.0497,3.7100,5.2500,-2.8700,10,5
-0.7398,0.1044,0.6490,-11.9700,12.3200,-12.5300,9,6
-0.8179,-0.0727,0.5524,-5.2500,-39.8300,-1.1900,0,11
-0.6183,0.0908,0.7749,8.6100,-70.7000,0.9800,13,5
-0.4036,0.0439,1.1112,-15.5400,-34.9300,-5.3200,34,8
-0.4714,-0.0068,0.9980,2.0300,16.7300,3.9900,39,8
-0.6461,0.0478,0.7369,4.4100,21.2100,4.2000,43,1
-0.6803,0.0996,0.7330,0.7700,-8.6800,2.9400,56,9
-0.6359,0.0581,0.7906,-5.1100,-22.8900,-2.3800,67,8
-0.5646,0.0151,0.8242,-6.8600,-26.3900,-2.7300,107,1
-0.5861,0.0620,0.8281,3.1500,-25.2700,2.3100,151,6
-0.5129,0.0747,0.9267,1.6800,-12.5300,1.7500,195,0
-0.5578,0.0107,0.8398,-1.8900,-5.6700,1.0500,269,8
-0.5158,0.0649,0.9238,1.1200,0.0000,1.7500,299,6
-0.5270,0.0454,0.9023,0.7700,13.0200,1.1200,357,7
-0.5446,0.0493,0.8804,1.4000,20.6500,0.0700,413,5
-0.5832,0.0181,0.8452,0.4200,22.4000,-1.6100,472,6
-0.5880,0.0220,0.8335,4.3400,23.2400,2.4500,517,2
-0.6032,0.0605,0.8311,4.0600,24.7800,1.4000,549,8
-0.6061,0.0200,0.8194,3.8500,24.5000,4.6200,579,2
-0.6202,0.0766,0.8120,5.6000,26.7400,4.6200,610,8
-0.6251,0.1225,0.8316,5.1800,32.8300,-0.0700,647,9
-0.5744,0.1074,0.9004,4.9000,55.7900,-7.3500,683,8
-0.4914,0.0537,0.9853,8.8900,103.6000,-9.7300,695,4
-0.4841,0.1664,1.0594,8.4700,183.8900,-23.1000,617,10
-0.7549,-0.0234,0.9418,33.3200,281.5400,-30.0300,290,4
-1.0775,-0.2333,0.9121,80.7800,322.6300,0.4200,28,8
-1.8583,-0.4016,0.9218,157.3600,240.5200,-4.2700,13,8
-1.1492,0.1498,1.7017,239.0500,79.3100,-64.3300,6,5
0.1513,0.1703,1.0868,139.2300,-83.1600,-81.1300,7,4
0.0571,-0.0766,0.8804,119.4200,-79.6600,-34.3000,8,5
-0.3011,-0.0088,0.9052,96.0400,-167.3000,-10.2900,5,6
-0.3836,-0.0688,0.8384,75.5300,-233.8700,1.1200,8,5
-0.5719,-0.0156,0.8252,63.6300,-260.8900,12.8100,11,6
-0.8662,-0.1220,0.8711,49.8400,-280.9100,15.0500,3,4
-0.9955,0.2869,0.9184,28.5600,-262.8500,1.2600,5,4
-1.1004,0.2606,0.7798,-3.7800,-195.0900,25.5500,3,5
-1.3596,-0.0425,0.5529,-22.7500,-113.8900,80.8500,8,6
-2.4756,0.2308,0.3826,15.5400,-38.9200,87.5700,6,16
-1.7954,-0.3924,-0.3660,-3.7800,-39.9000,8.4000,3,1
-1.6904,-0.1425,-0.5036,12.9500,60.4800,-42.1400,0,4
-0.7086,1.1634,-0.4665,-159.1800,9.2400,-13.6500,12,7
-0.6217,0.8320,1.1478,46.1300,22.8900,-10.9900,68,3
-0.8359,0.2113,0.7471,51.8000,20.0200,12.3200,276,7
-0.6588,0.0722,0.7710,11.2000,-15.3300,3.9200,401,8
-0.5407,0.0864,0.8682,-35.3500,-30.0300,-14.9800,520,6
-0.4460,-0.1220,0.9736,-7.4900,-7.9800,-2.1700,589,0
-0.4573,0.0996,0.9511,9.9400,21.7000,4.9000,635,6
-0.5231,0.1220,0.9243,5.7400,37.5200,2.3100,665,6
-0.5285,0.0659,0.8935,7.9800,54.3900,1.5400,685,1
-0.5861,0.0927,0.8330,8.1900,61.6000,-0.1400,690,7
-0.6422,0.1088,0.7735,4.6900,59.3600,-7.6300,715,5
-0.6705,0.1074,0.7393,1.7500,53.4100,-10.9900,742,8
-0.6939,0.0405,0.7135,-0.0700,48.2300,-6.0200,778,6
-0.6969,0.0795,0.7310,1.6800,47.8100,-0.5600,822,6
-0.6891,0.1030,0.7579,4.2700,54.6000,-1.6800,835,11
-0.6534,0.1322,0.8359,0.3500,84.0700,-8.8900,855,12
-0.5788,0.0366,0.9043,8.4700,154.2800,-1.7500,811,6
-0.5344,0.0634,1.0907,4.9000,269.5000,0.9800,482,0
-1.5567,-0.0703,1.1170,8.6100,368.0600,5.0400,126,8
-2.5356,0.2464,1.3498,63.7700,347.9000,-19.6000,14,10
-1.0375,-0.0634,1.3615,85.8200,154.3500,-36.2600,20,7
-0.0703,0.5802,1.7202,48.6500,-113.0500,-68.8800,16,0
0.0005,0.1581,0.9604,37.8000,-178.9900,-39.9000,14,4
-0.1913,0.2430,0.8179,14.7000,-254.4500,15.4700,10,11
-0.4607,-0.1810,0.7403,45.4300,-301.9100,28.3500,24,7
-0.7901,-0.0483,0.8164,68.9500,-318.0800,-4.8300,21,4
-1.1463,0.1298,0.9228,83.0900,-298.7600,-20.3000,7,7
-1.0609,0.2816,0.7759,27.9300,-233.5200,1.6100,5,2
-1.4059,-0.1264,0.5378,33.2500,-125.4400,49.6300,0,3
-2.1082,-0.0229,0.3553,83.4400,-34.5800,92.1200,6,4
-2.0535,-0.3743,-0.2884,-40.4600,-78.6100,31.6400,5,4
-2.0042,-0.0649,-0.6647,-15.1200,42.2800,-44.0300,8,2
-1.3405,-0.0878,-0.7515,-0.9800,101.2900,-25.9700,8,2
-2.8128,-1.9666,2.2546,-242.5500,-130.6900,-11.9000,26,8
-0.5012,-0.5710,1.2098,-147.6300,-35.7700,3.9900,331,3
-0.5788,0.1410,0.9248,-47.7400,2.7300,12.9500,496,5
-0.5197,0.3123,0.9043,-1.2600,1.4700,-0.8400,563,0
-0.4982,0.0093,0.9462,-3.3600,10.4300,-1.9600,632,3
-0.4973,0.0532,0.9306,9.3800,29.1900,2.2400,672,8
-0.5553,0.0673,0.8569,6.9300,40.1800,5.8800,686,8
-0.5861,0.0854,0.8213,5.7400,40.4600,2.6600,677,6
-0.6115,0.0893,0.7881,8.1200,35.2800,2.0300,681,8
-0.6603,0.1810,0.7627,0.9800,26.0400,-6.7900,705,6
-0.6525,0.1015,0.7881,-5.5300,19.9500,-14.1400,749,3
-0.6212,-0.0117,0.8003,-2.3800,26.8800,-9.1000,809,3
-0.6437,0.0752,0.7930,7.0700,33.2500,-3.3600,838,8
-0.6598,0.1557,0.7959,2.1700,39.2000,-10.1500,879,7
-0.6237,0.0913,0.8477,-2.8700,57.5400,-16.8000,908,5
-0.5851,0.0273,0.8789,-6.5100,91.7700,-12.6000,929,4
-0.5134,0.1103,0.9736,-4.9000,154.2800,-9.7300,897,4
-0.5334,0.2572,1.0004,-20.4400,252.7700,-26.3200,635,10
-1.3254,0.2377,1.0985,-24.8500,324.1000,-53.6900,149,8
-1.6919,-0.1757,1.1610,-8.6100,340.2000,-62.0200,31,8
-1.4581,0.2308,1.1029,-20.5100,217.8400,-95.1300,19,3
-0.8228,0.3787,1.8534,68.5300,-37.8700,-31.3600,16,4
0.1093,0.3323,1.0780,-4.7600,-136.7100,-9.5200,17,0
-0.1737,0.2913,0.9243,32.5500,-220.7100,41.3700,22,3
-0.4163,-0.0278,0.7964,23.3800,-286.5100,64.4700,20,5
-0.6495,0.0732,0.8228,48.7900,-306.6000,56.6300,17,10
-1.1024,0.0410,0.9496,34.0900,-320.2500,36.4700,13,0
-1.0350,0.3943,0.9658,38.0800,-278.9500,29.9600,15,8
-1.1434,0.5402,0.7486,-12.3900,-148.4700,62.0200,11,5
-1.8315,-0.0508,0.6100,82.6000,-31.4300,140.1400,9,1
-1.9496,0.1069,0.1425,20.9300,-40.7400,118.0200,12,9
-1.9320,-0.5646,-0.8901,-19.9500,4.9700,-7.0000,6,8
-1.4679,0.2059,-0.9174,32.4100,101.5000,-12.7400,10,3
-5.3158,2.4498,0.7740,143.5000,131.8800,-158.4100,15,7
0.3348,0.5944,1.9510,295.9600,-60.0600,-46.2700,267,3
-0.4499,-1.4879,0.7608,15.9600,-2.8700,1.4000,532,12
-0.5490,-0.0166,0.8628,-3.2900,7.0000,4.2000,628,8
-0.5075,0.0712,0.9340,6.4400,16.0300,1.8900,672,8
-0.5075,0.0595,0.9233,16.4500,33.4600,3.3600,700,0
-0.5744,0.2259,0.8379,9.4500,37.9400,-0.9800,708,8
-0.6207,0.1000,0.7540,-4.6900,23.3100,-9.5900,715,7
-0.6246,0.0405,0.8008,-9.8000,16.8000,-10.8500,745,6
-0.6154,0.0781,0.8047,-4.2700,12.8100,-8.6100,762,8
-0.6359,0.1064,0.7993,-4.0600,10.6400,-9.3800,824,3
-0.5851,0.0381,0.8433,-6.5100,13.7900,-13.0200,865,10
-0.5714,0.0156,0.8882,0.4200,31.0800,-7.9800,914,5
-0.6046,0.0639,0.8545,5.5300,50.2600,-6.6500,952,8
-0.6129,0.1381,0.8540,2.8700,67.2700,-16.0300,967,10
-0.6071,0.0673,0.8516,-0.1400,93.5900,-20.4400,982,0
-0.5841,0.1020,0.8828,-8.3300,135.9400,-22.8200,967,6
-0.6998,0.2674,0.8145,-25.0600,195.0200,-42.0000,750,7
-1.4660,0.3392,1.0331,-60.1300,213.2200,-86.8000,161,3
-1.6304,0.3714,1.2927,-1.8200,219.7300,-102.9000,41,7
-0.9296,0.2577,1.6358,-18.4800,128.8000,-81.9000,23,4
-0.1366,0.5993,1.8476,-8.2600,-14.0700,55.5800,13,8
0.3792,-0.1283,1.4240,23.3800,-120.5400,71.2600,15,5
-0.0020,-0.1113,1.2517,54.9500,-207.2700,29.3300,16,6
-0.5285,-0.0547,1.2171,62.8600,-248.8500,26.3900,20,8
-0.8491,-0.0205,1.2190,40.5300,-264.1100,44.2400,12,7
-1.0390,0.0961,1.1878,33.3200,-251.6500,50.9600,10,9
-0.8657,-0.0176,0.9575,28.1400,-173.8100,61.9500,13,4
-1.0819,-0.1347,0.8828,30.5200,-94.9900,58.5200,17,1
-1.1336,-0.2420,0.6481,64.8900,-31.2200,66.0100,14,10
-2.3175,0.2499,0.2557,50.9600,-72.6600,47.9500,18,6
-1.0887,-0.0576,-0.5168,5.6000,6.3700,-8.1200,12,8
-1.5533,-0.1732,-0.2752,-48.8600,51.0300,-65.1700,18,9
-1.4845,0.6002,-0.3626,0.5600,128.8000,9.2400,6,4
-15.4237,-0.4763,5.6623,-119.0700,-328.1600,-70.7700,15,0
-1.3918,1.5592,0.9111,148.9600,-51.8700,-48.0200,487,8
-0.5636,0.4158,0.9926,-10.2900,16.3800,4.0600,755,4
-0.5070,0.0942,0.9433,9.7300,34.4400,3.0800,834,10
-0.5056,0.1161,0.9780,5.5300,56.8400,-2.5900,865,3
-0.5168,0.0464,0.9321,7.8400,87.5000,-5.3900,878,7
-0.5832,0.0234,0.8042,21.7000,106.2600,-2.5900,855,8
-0.7232,0.1606,0.6686,8.4700,95.9700,-6.6500,827,4
-0.8330,0.1669,0.5632,-3.7800,70.7700,-14.0000,803,6
-0.8374,0.1176,0.5817,-9.6600,43.2600,-21.1400,822,4
-0.8169,-0.0020,0.5871,-10.2900,27.8600,-15.0500,877,3
-0.7837,0.0215,0.6398,-2.6600,26.3900,-3.0800,942,5
-0.7222,0.0766,0.7476,-1.4000,45.0800,-6.1600,984,7
-0.6295,0.0859,0.8794,-10.8500,95.2000,-12.7400,991,9
-0.5251,0.1503,1.0253,-9.4500,193.0600,-23.6600,922,8
-0.9496,0.2957,1.1429,-46.8300,325.4300,-63.7000,466,4
-1.4220,0.1118,1.1224,-26.8800,409.1500,-74.8300,151,9
-2.5801,0.3167,1.1112,21.5600,351.8200,-82.3900,36,0
-0.9745,0.6339,1.4206,53.3400,93.1700,-51.1000,26,16
0.4353,0.3714,1.0370,-97.7200,-201.3900,33.6700,19,5
0.1118,-0.0786,0.6959,70.4900,-199.4300,40.1100,14,3
-0.3767,0.0966,0.7686,46.4800,-284.1300,36.9600,16,8
-0.4260,-0.2279,0.6388,79.8700,-334.1100,41.8600,16,8
-0.7022,-0.0239,0.7505,100.0300,-305.4800,47.5300,13,5
-1.1712,-0.0361,1.0170,71.8900,-316.7500,53.2700,16,3
-0.8686,0.1386,0.9672,48.5800,-255.4300,40.1800,15,4
-1.6368,-0.2216,0.7793,18.8300,-132.4400,74.9700,15,8
-3.1964,0.3821,0.4812,48.0200,-54.9500,117.9500,12,7
-2.1038,-0.6188,-0.8481,-27.7900,-75.0400,63.4900,7,7
-2.1916,-0.3967,-1.1766,27.6500,68.8800,-24.5700,7,9
-3.3613,2.1330,-0.0156,174.5800,185.7800,-112.9800,8,8
0.4294,-0.2235,1.8359,196.2100,-13.4400,-41.0900,38,4
-0.2948,-0.8989,0.7832,43.0500,6.0900,3.1500,239,4
-0.4724,-0.0859,0.8594,-15.8900,2.9400,3.5000,392,4
-0.5070,0.0844,0.8965,-0.6300,1.2600,-3.1500,489,3
-0.5080,0.0786,0.9052,4.6900,10.8500,-0.7000,574,6
-0.4778,0.0986,0.9492,4.7600,24.9200,-2.2400,647,8
-0.5100,0.1186,0.9145,4.2000,42.9100,-3.7800,686,0
-0.5719,0.0805,0.8623,5.3900,51.4500,-4.7600,733,10
-0.6085,0.1186,0.8198,9.8000,53.6200,-6.3000,770,4
-0.6554,0.1147,0.7696,4.8300,49.6300,-12.1800,796,2
-0.6695,0.0917,0.7530,1.3300,45.2900,-12.8800,831,9
-0.6812,0.0654,0.7471,2.4500,45.3600,-10.1500,866,8
-0.6969,0.0669,0.7320,2.5200,46.9000,-6.5100,918,3
-0.6744,0.1035,0.7676,-2.8000,55.0900,-5.1100,960,6
-0.6349,0.1254,0.8550,-16.4500,82.0400,-10.9900,995,0
-0.5656,0.1747,0.9433,-13.9300,140.1400,-17.9900,985,12
-0.5158,0.3811,0.9789,-29.7500,239.8200,-58.1000,870,9
-1.2537,0.0434,1.2034,-54.8100,352.7300,-83.4400,318,6
-1.8227,0.0102,0.9384,-8.5400,387.8000,-70.9100,48,6
-2.1140,0.1078,1.1107,14.8400,217.4900,-80.1500,29,3
-0.9033,0.0508,1.5723,35.4200,-43.8200,-26.6000,18,5
0.2904,0.0903,0.8564,30.5900,-142.3100,1.5400,18,8
-0.0234,0.2513,0.7559,50.2600,-206.4300,34.5100,18,5
-0.3762,-0.0195,0.7291,35.2100,-272.7200,62.3000,21,0
-0.6432,-0.1781,0.7735,89.8100,-306.2500,65.3100,16,8
-0.9536,-0.1552,0.8789,82.3900,-305.6900,48.0200,18,3
-1.0487,0.0229,1.0126,65.4500,-280.7000,35.4200,15,4
-0.9677,0.0395,0.9540,51.6600,-200.2700,34.5800,17,12
-2.1340,-0.2001,0.8203,79.1000,-83.3000,77.6300,12,9
-1.5933,-0.2865,-0.1586,8.5400,-92.0500,46.3400,13,8
-2.3971,-0.5856,-0.6671,30.2400,21.8400,-28.3500,11,8
-1.4040,-0.1362,-0.8901,32.7600,102.6900,-45.9900,11,6
-5.1113,1.9813,1.5299,172.6200,210.8400,-105.6300,8,4
0.0493,0.4704,1.4503,151.1300,-53.9000,-42.7000,70,0
-0.4333,-0.5915,0.9301,35.7000,-4.2700,3.2900,278,6
-0.5500,0.0556,0.8838,18.9000,6.3000,6.0900,403,7
-0.5246,0.1161,0.9013,0.9800,8.1900,0.8400,496,7
-0.5134,0.0503,0.9062,5.2500,15.9600,3.2900,549,8
-0.5031,0.0956,0.9238,10.9200,31.1500,2.0300,601,0
-0.5441,0.1220,0.8813,7.7000,45.2200,-0.3500,644,7
-0.5919,0.1132,0.8467,3.7800,50.3300,-5.3900,689,9
-0.6071,0.0893,0.8164,6.7200,53.6200,-6.9300,718,6
-0.6398,0.1098,0.7871,7.7700,55.4400,-8.7500,762,10
-0.6876,0.1059,0.7427,4.8300,53.8300,-10.7800,774,9
-0.7032,0.0781,0.7188,6.0900,52.8500,-6.8600,802,5
-0.7271,0.0576,0.7017,4.6900,52.0800,-2.2400,829,3
-0.7237,0.1015,0.7066,0.0700,54.0400,-0.3500,861,6
-0.6681,0.1562,0.7930,-4.9700,80.5000,-6.5800,888,7
-0.6202,0.0781,0.8721,-9.0300,125.3000,-5.1800,893,3
-0.5266,0.2611,1.0038,-0.9100,221.0600,-28.4900,810,9
-1.0429,0.0459,1.2581,-4.8300,356.7200,-36.0500,328,5
-1.7900,-0.0127,0.8999,48.5800,417.5500,-27.1600,37,9
-2.4707,0.2713,1.1941,77.9800,248.2200,-55.4400,27,6
-1.0170,-0.1923,1.6777,57.5400,-49.4200,-72.6600,16,6
0.3123,0.1547,0.9394,93.3800,-150.5000,-45.3600,17,5
-0.1035,0.1527,0.8286,77.1400,-219.1700,38.0800,17,0
-0.3709,-0.4128,0.7774,73.6400,-320.0400,76.5100,23,3
-0.8169,-0.4016,0.8838,134.8900,-342.9300,19.8100,20,3
-0.9936,-0.3655,0.8935,119.3500,-322.7000,-25.3400,22,12
-1.0385,-0.0307,1.1190,77.6300,-281.4700,-30.5900,16,8
-1.2112,-0.2006,0.9618,89.0400,-179.8300,-1.8200,14,4
-2.6572,-0.1186,0.8008,131.5300,-80.8500,48.2300,15,8
-1.7905,-0.3728,-0.5202,50.8900,-66.9200,15.8200,19,8
-2.5215,-0.6695,-0.9941,70.7700,10.5000,-79.1000,5,10
-1.4625,0.2616,-0.8457,39.4100,131.8800,-60.6900,4,8
-6.0902,1.0780,2.9744,-774.2700,-207.6200,90.9300,12,7
-0.2206,2.9841,1.4118,31.7100,-73.9200,-12.8800,100,7
-0.4324,-0.2811,1.0165,87.0100,4.6900,-8.9600,277,25
-0.5129,0.0922,0.8862,14.3500,6.6500,3.7800,384,15
-0.5436,0.0644,0.8877,8.6100,12.0400,0.1400,459,1
-0.5085,0.0698,0.9150,7.4900,21.1400,0.4200,548,8
-0.5012,0.0830,0.9223,8.6800,39.8300,-1.1200,601,6
-0.5802,0.0722,0.8442,5.0400,50.7500,-4.2700,643,8
-0.6002,0.1186,0.8184,5.8800,50.7500,-6.2300,660,3
-0.6320,0.1059,0.8076,3.6400,52.5700,-12.0400,683,3
-0.6559,0.0503,0.7632,4.2700,53.6200,-12.1100,724,6
-0.6861,0.0566,0.7379,5.3900,55.3000,-7.9100,765,4
-0.7154,0.0595,0.7130,4.4100,56.5600,-0.7000,777,6
-0.7349,0.1054,0.7003,1.1200,57.1900,0.9100,828,3
-0.6910,0.1098,0.7740,-2.3800,71.3300,-2.4500,863,7
-0.6242,0.0224,0.8194,0.9800,112.7000,0.3500,870,3
-0.5129,0.2020,0.9853,11.8300,199.3600,-10.8500,808,5
-0.6852,-0.0093,1.0868,3.5700,343.4200,-24.0100,437,4
-1.4152,-0.1181,0.9838,67.8300,421.3300,-2.7300,94,0
-2.5244,0.3216,0.7388,84.9800,308.4200,-30.1700,27,10
-0.9609,0.0732,1.5040,39.1300,-71.4000,-96.2500,20,12
0.2162,0.2240,0.7832,68.8800,-178.1500,-93.7300,13,9
-0.1122,0.2474,0.6978,68.7400,-217.8400,-2.7300,17,9
-0.4480,0.0761,0.7237,44.4500,-287.9100,76.5100,15,7
-0.6759,-0.3899,0.7671,89.4600,-325.8500,65.5900,17,12
-0.9965,-0.0869,0.8638,82.9500,-325.9900,21.7700,19,10
-1.1009,-0.0947,0.9623,74.5500,-301.9100,7.9100,10,8
-0.8076,0.1962,0.8652,38.7100,-199.7100,-6.3700,8,7
-1.3259,-0.3826,0.6310,81.3400,-64.5400,41.0900,18,2
-2.8123,0.0610,0.3626,83.7900,-66.5000,94.8500,15,8
-1.3893,-0.5168,-0.7759,1.1200,5.3900,9.3100,7,4
-1.8568,-0.4041,-0.8594,84.1400,62.9300,-65.1000,5,3
-2.5337,3.3926,0.0273,-165.8300,42.4200,-172.4100,14,8
-0.2708,0.4309,1.6646,337.5400,-22.8200,-57.3300,43,0
-0.0303,-1.0960,0.8662,-5.0400,-26.4600,-0.1400,309,9
-0.5168,-0.0517,0.8555,-2.3800,-7.4200,1.4700,446,7
-0.5451,0.0932,0.9077,10.6400,1.6800,-0.9100,537,7
-0.5046,0.0488,0.9189,0.2100,13.5800,2.7300,604,8
-0.4934,0.0986,0.9374,3.0100,31.8500,2.7300,639,6
-0.5456,0.0776,0.8886,6.7200,51.5900,2.8700,664,3
-0.6168,0.1122,0.7979,7.4200,52.9900,1.8200,685,7
-0.6593,0.1513,0.7540,7.2800,45.1500,-2.5200,684,9
-0.6705,0.1039,0.7584,2.1700,35.2800,-4.3400,700,8
-0.6876,0.0508,0.7354,1.6100,26.8800,-0.3500,721,3
-0.6891,0.1083,0.7525,5.0400,26.1100,-0.1400,752,10
-0.6852,0.1118,0.7554,3.1500,27.7200,-3.0100,778,0
-0.6852,0.0908,0.7525,4.1300,32.9700,-3.9900,783,1
-0.7427,0.0834,0.6856,7.5600,34.2300,-1.0500,776,9
-0.8262,0.1332,0.6105,1.8200,20.8600,-2.5200,696,3
-0.7320,0.2772,0.7754,-6.1600,-1.1900,-14.9100,571,2
-0.5915,0.1118,0.9038,-9.5900,36.4700,-30.8700,407,5
-0.6324,0.1283,0.8330,45.5700,92.0500,-56.6300,187,8
-0.9975,0.1235,0.7388,122.0800,113.1200,-88.6900,26,8
-1.0736,0.1074,0.7730,177.9400,52.7800,-107.4500,21,8
-0.9692,0.2865,0.5963,212.1000,-17.0100,-159.1100,13,5
-0.6944,0.0693,0.4807,222.4600,-66.1500,-228.0600,15,7
-0.8818,0.1684,0.4982,248.3600,-88.3400,-250.5300,9,9
-0.7515,-0.0293,0.4231,249.4800,-58.9400,-185.5700,15,0
-0.7954,-0.1118,0.4656,274.1900,-60.0600,-167.0200,19,11
-0.7671,-0.3138,0.5885,286.0200,-73.0100,-210.2800,13,2
-0.6895,-0.2430,0.6383,287.9100,-80.1500,-254.5900,20,4
-0.6515,0.0054,0.6637,272.5100,-77.9100,-269.6400,16,5
-0.6212,0.1586,0.6334,260.1200,-57.4700,-250.1800,11,2
-0.5358,0.3655,0.6739,204.6800,-37.1000,-178.0800,14,6
-0.4953,0.3079,0.6398,138.7400,3.6400,-105.8400,9,8
0.4929,0.5290,1.1434,300.3000,-98.5600,-110.5300,8,4
-0.5949,-1.0594,0.7701,-195.5800,-86.2400,-16.0300,15,3
-0.4670,-0.3816,0.9116,-22.1200,-32.4100,21.4200,64,3
-0.5719,0.1845,0.8838,15.0500,-10.9200,25.3400,111,7
-0.6046,0.2499,0.8130,-2.1700,-20.5100,7.2100,143,0
-0.5475,0.0420,0.8662,-26.3200,-30.2400,0.4200,184,5
-0.4821,-0.0029,0.9457,-11.2700,-15.4000,2.7300,234,4
-0.4797,0.0551,0.9213,0.7700,4.2700,6.0900,288,8
-0.5144,0.0927,0.8965,6.7200,12.8100,3.0800,336,0
-0.5192,0.0722,0.9048,6.4400,20.5800,0.8400,380,3
-0.5368,0.0595,0.8799,9.3800,30.3800,2.7300,447,7
-0.5729,0.0898,0.8506,8.6100,34.2300,1.1200,498,7
-0.6007,0.0991,0.8281,3.1500,34.7200,-4.1300,548,0
-0.6041,0.0815,0.8218,1.3300,36.1200,-5.3200,594,8
-0.6320,0.0639,0.7940,6.8600,37.5900,-1.3300,627,10
-0.6437,0.0771,0.7793,7.2800,39.4800,0.8400,646,8
-0.6651,0.0844,0.7720,8.0500,42.0000,3.9900,678,8
-0.6515,0.0849,0.7774,9.9400,50.6100,3.3600,685,5
-0.6339,0.0625,0.8281,10.2900,68.6000,7.4900,683,8
-0.6437,0.0088,0.8125,21.0000,101.5700,16.1000,626,8
-0.5900,0.0317,0.8979,52.6400,151.4800,27.7200,414,7
-0.6871,-0.3070,0.9228,82.4600,229.3200,75.2500,176,9
-1.4977,-0.5827,0.9575,212.3800,238.8400,158.2000,7,8
-2.1716,-0.0127,0.6383,517.9300,136.7800,172.8300,13,7
-0.8877,1.4323,1.3976,375.6200,-49.9800,-81.2700,7,8
-0.2723,-1.1263,0.8467,306.3900,-216.3700,-282.1000,20,7
-0.3172,0.6603,0.8564,162.2600,-204.7500,-229.8100,7,5
-0.1728,0.0429,0.8574,74.4800,-201.1800,-128.8000,12,10
-0.3963,0.3772,0.8642,95.4100,-236.3200,-60.7600,13,7
-0.4656,-0.0093,0.8706,55.7200,-251.5800,-32.4100,18,5
-0.5963,0.1767,0.9287,45.9900,-260.6800,2.5900,12,6
-0.7183,0.2572,1.0502,24.3600,-238.2100,19.7400,3,0
-0.9877,0.3416,1.0165,-7.1400,-143.5700,18.9700,9,3
-1.8168,-0.4314,0.7032,-37.0300,-74.6200,26.6000,7,9
-2.0740,-0.1440,-0.3065,94.7800,-34.0900,64.5400,8,7
-2.2809,-0.9897,-1.1234,12.1100,54.7400,29.1200,8,4
-1.7832,-0.2020,-0.8882,4.9000,81.4800,-18.4100,9,6
-6.1742,2.6186,2.7445,84.6300,-7.9100,-4.0600,6,5
-0.5851,0.5222,0.7979,161.9100,4.3400,-35.5600,61,6
-0.5812,-0.0664,0.8438,-7.0700,-15.6800,-5.5300,193,12
-0.6022,0.0981,0.8501,-11.9000,-16.1700,-1.2600,342,0
-0.5461,0.0908,0.8965,-24.6400,-12.6000,-6.6500,440,7
-0.4763,0.0356,0.9248,-2.8000,1.8900,-3.9200,515,0
-0.4939,0.0996,0.9384,4.7600,25.4100,-4.5500,607,8
-0.5275,0.0791,0.9145,-0.6300,45.7100,-6.3000,690,7
-0.5778,0.0547,0.8477,6.8600,56.0700,-4.8300,703,8
-0.7466,0.1015,0.7935,8.6100,56.9100,-7.9100,738,7
-0.6852,0.1005,0.7296,7.7700,52.4300,-11.9000,771,6
-0.7213,0.0742,0.6876,0.9800,38.7100,-8.7500,783,3
-0.7076,0.0605,0.7183,-1.0500,29.1900,-8.9600,826,10
-0.6978,0.0639,0.7383,-2.4500,29.6100,-8.2600,878,5
-0.6500,0.0527,0.8140,-2.1000,44.1700,-5.2500,928,8
-0.5993,0.0683,0.8950,-5.2500,80.5000,-4.5500,975,7
-0.5163,0.2621,1.0185,-8.3300,152.9500,-22.1900,976,10
-0.5285,0.3787,0.9838,-38.9900,254.8000,-76.2300,840,7
-1.3625,0.0669,1.0477,-67.5500,350.0700,-103.4600,286,6
-1.7060,-0.0234,0.9243,-11.5500,396.4800,-91.4900,45,5
-2.3780,0.2991,1.2937,1.5400,246.6100,-107.3800,25,10
-1.7197,0.6144,1.5470,-58.2400,0.5600,-18.4800,12,8
0.1752,0.3518,0.8955,-41.9300,-157.7800,53.5500,16,7
-0.0991,0.0483,0.7232,26.2500,-204.8900,67.0600,9,7
-0.4197,0.0307,0.7603,26.1100,-273.1400,75.3200,18,5
-0.4626,-0.0908,0.6666,87.1500,-321.7900,73.5000,18,4
-0.9623,0.0332,0.8560,79.1000,-325.7800,70.5600,17,8
-0.9579,0.0854,0.9877,38.2900,-306.4600,61.1800,20,5
-0.7218,0.3250,0.9819,50.9600,-221.8300,54.1100,16,0
-1.4821,-0.2118,0.8730,22.4700,-78.0500,83.0900,12,12
-3.1998,-1.1434,0.2435,-49.2100,-41.6500,95.6200,11,7
-1.8105,-0.1903,-1.0590,25.6200,-22.6800,47.3900,3,5
-2.5937,0.9980,-0.4934,140.1400,174.7900,-131.8800,9,7
-2.1086,-2.7372,-1.1009,-368.1300,-202.4400,-58.1000,15,5
-0.6842,-0.5144,0.8628,-171.5000,-41.2300,-0.0700,145,8
-0.5993,0.6188,0.8794,-17.9200,-8.1200,-0.8400,339,3
-0.5314,0.2098,0.8760,-32.5500,-7.4900,-8.8200,465,5
-0.4904,0.0503,0.9462,-2.5900,13.0900,-3.4300,568,8
-0.5031,0.1161,0.9550,1.6100,33.6000,-0.4900,666,7
-0.5392,0.0825,0.8955,-0.4200,50.6100,-2.6600,720,8
-0.5739,0.0791,0.8398,2.8700,59.9900,-5.3200,748,8
-0.6393,0.0571,0.7798,6.7900,59.9900,-6.5800,772,3
-0.6930,0.0996,0.7354,9.8000,55.5800,-9.4500,784,10
-0.7305,0.0659,0.6798,5.7400,42.7700,-9.0300,776,5
-0.7379,0.0620,0.6895,2.7300,30.3100,-7.9800,788,12
-0.7286,0.0625,0.6964,-1.0500,23.3100,-6.0900,828,7
-0.7042,0.0498,0.7379,-1.0500,25.9000,-3.0800,866,4
-0.6373,0.0351,0.8237,-0.7000,48.7200,-2.3100,901,6
-0.5885,0.0781,0.8999,2.0300,95.5500,-7.1400,911,5
-0.5100,0.1859,1.0155,6.0900,177.9400,-23.4500,884,2
-0.6510,0.1454,0.8886,-19.8100,275.4500,-52.8500,565,7
-1.4137,-0.0712,0.7764,-9.8700,310.8000,-41.7900,153,1
-1.7246,0.0913,0.4670,-14.1400,280.3500,-53.0600,29,4
-1.6328,-0.0712,0.3450,9.1000,174.5800,-69.5100,30,5
-1.2586,0.2162,0.8062,89.3900,11.4100,-65.3100,17,4
-0.1601,0.5270,0.4934,41.5100,-160.4400,-48.9300,14,4
-0.1601,-0.0278,0.2699,4.6200,-115.5700,17.5000,7,4
-0.8028,0.0522,0.3587,38.5700,-151.5500,70.8400,20,0
-0.7466,-0.0420,0.2411,0.9100,-199.5000,65.2400,15,9
-0.8081,-0.0898,0.2089,17.4300,-168.1400,56.2800,15,8
-1.1434,-0.1122,0.3821,-6.0900,-161.0000,58.5900,15,5
-1.0795,-0.0332,0.3909,-6.0900,-148.8200,39.4800,17,5
-1.0102,0.0234,0.4587,-6.8600,-138.1100,33.4600,15,4
-0.9296,0.0420,0.5295,-9.9400,-113.9600,52.6400,18,4
-0.9350,0.0830,0.5905,-25.8300,-95.7600,61.0400,14,10
-0.8799,0.0981,0.6173,-33.5300,-69.3000,54.5300,14,3
-0.9082,0.1078,0.7003,-28.0000,-61.6700,60.6900,7,9
-0.8159,0.0888,0.7174,-25.5500,-49.2100,58.0300,9,10
-0.7305,0.1147,0.7261,-26.9500,-40.5300,49.9100,10,2
-0.7598,0.1513,0.7637,-23.6600,-47.8800,49.7700,8,3
-0.6739,0.1347,0.7989,-19.3200,-31.9900,48.2300,10,1
-0.6598,0.0976,0.7993,-17.2200,-31.2900,40.0400,5,8
-0.7291,0.0708,0.8067,-4.5500,-27.2300,28.0700,7,6
-0.6300,0.0752,0.7769,-3.7800,-17.9200,17.9200,6,8
-0.6207,0.1147,0.7696,0.5600,-4.7600,13.1600,10,7
-0.6852,0.1039,0.7764,-2.8700,-5.3900,14.2100,9,4
-0.6739,0.1166,0.7603,-4.8300,-0.2100,16.3100,8,6
-0.6246,0.0649,0.7603,-1.5400,1.4000,18.1300,9,4
-0.5763,0.0869,0.7374,-4.7600,2.1700,18.2700,6,4
-0.6861,0.1376,0.7213,-3.7800,1.8200,17.4300,9,7
-0.7491,0.0161,0.6071,4.2000,30.5200,-0.0700,8,6
-0.8135,0.1942,0.5368,-6.0900,29.1200,-1.8200,12,7
-0.8530,0.2137,0.4558,-13.7200,54.5300,5.3200,13,5
0.0190,-0.3972,0.6705,12.7400,-3.2200,-8.6800,3,3
-0.6154,-0.2591,0.8433,-11.7600,-7.3500,-5.0400,10,9
-0.5309,0.0185,0.8813,-23.8700,-10.9200,-0.3500,6,7
-0.5534,0.0961,0.8784,-5.7400,-9.7300,2.9400,13,7
-0.6090,0.1269,0.8418,-5.8800,-10.0100,2.7300,64,5
-0.5588,0.0878,0.8530,-15.0500,-16.1000,1.9600,134,3
-0.5280,0.1069,0.8647,-5.7400,-10.1500,1.7500,219,10
-0.5417,0.0893,0.8794,-4.9000,-6.1600,2.1000,327,6
-0.5266,0.0966,0.9106,-3.8500,1.8200,1.1900,415,3
-0.5266,0.0742,0.8877,-6.7900,5.3900,-2.1000,511,3
-0.5353,0.0644,0.9130,-0.8400,15.6800,-1.4700,575,9
-0.5324,0.0586,0.8994,-2.1000,26.8100,1.4700,643,3
-0.5549,0.0708,0.8638,5.2500,53.0600,3.6400,653,5
-0.6037,0.0991,0.8374,8.0500,38.4300,0.8400,638,6
-0.6212,0.0971,0.7910,7.4200,35.4200,-0.4200,626,6
-0.6534,0.1181,0.7627,1.9600,28.8400,-3.7100,628,6
-0.6651,0.1191,0.7525,1.4700,21.6300,-7.4200,646,7
-0.6573,0.0795,0.7706,0.3500,17.3600,-8.4000,688,9
-0.6417,0.0664,0.8062,-0.1400,21.2100,-7.2100,752,8
-0.6242,0.0181,0.8076,7.4200,34.7900,-2.3100,782,8
-0.6198,0.1020,0.8316,9.9400,55.5800,-2.1000,812,0
-0.6300,0.1606,0.8467,0.4200,79.8000,-16.1700,837,10
-0.6149,0.2601,0.8691,-6.9300,118.3700,-34.3000,843,7
-0.6539,0.2406,0.8062,-34.8600,165.2000,-63.0700,797,8
-0.9496,0.4163,0.8496,-57.6800,226.6600,-106.1900,434,7
-1.3103,-0.0493,0.8501,-36.6100,263.2700,-131.7400,117,10
-2.0032,0.2660,1.0526,-2.5900,238.7700,-145.8100,14,8
-1.0477,0.4460,0.8164,-28.4900,121.1000,-182.4900,11,3
-1.7622,0.4094,1.3596,44.5900,-47.8800,22.5400,17,4
0.1122,0.5392,0.5187,-81.5500,-83.5100,109.4100,15,9
-0.2362,-0.0527,0.7115,3.2200,-122.3600,144.1300,20,7
-0.5368,-0.0971,0.7823,42.7700,-213.7100,124.3200,18,4
-0.5353,-0.1649,0.7466,91.0000,-263.9000,98.2100,20,8
-0.6910,-0.0917,0.7945,71.4700,-265.9300,94.9900,24,6
-0.8804,-0.0630,1.0521,67.9000,-258.3700,78.6800,11,8
-0.9443,-0.0864,1.1644,78.3300,-245.7000,69.0200,16,3
-1.0175,0.0537,1.2532,61.7400,-182.2800,65.1000,9,3
-1.1707,-0.4138,1.0253,29.0500,-121.1000,28.9100,9,0
-1.9281,-0.6251,0.3860,150.5700,-56.4200,-22.0500,13,4
-1.7002,-0.4275,-0.3440,150.9900,-55.9300,-57.1900,14,7
-1.3601,-0.2489,-0.2689,71.4000,45.7800,-146.5100,7,10
-1.4420,0.0215,-0.0664,83.4400,80.5000,-147.5600,3,0
-2.3351,3.8435,0.9843,137.2700,94.2900,-199.0100,12,8
-0.1088,-4.6946,-0.5334,-75.1800,-225.6100,-113.3300,11,8
-0.3704,-0.2586,1.0892,-226.3800,-89.7400,-15.9600,25,7
-0.5407,0.1874,0.9565,6.6500,0.0700,4.9000,98,53
-0.5456,0.2118,0.8886,27.0200,9.5900,7.2800,168,37
-0.5353,0.0917,0.8886,4.4800,10.5700,3.0100,207,5
-0.4885,0.0224,0.9228,9.4500,19.6700,5.9500,241,5
-0.5300,0.1396,0.8945,11.3400,33.0400,6.3000,275,3
-0.5744,0.1942,0.8496,3.2900,33.7400,0.9100,305,7
-0.5807,0.1230,0.8272,-0.7000,34.3000,-4.1300,328,8
-0.5949,0.1196,0.8306,0.3500,37.4500,-6.6500,322,8
-0.6134,0.0766,0.8145,3.5000,40.3200,-4.8300,319,9
-0.6320,0.0634,0.7954,9.7300,46.4100,2.5200,355,9
-0.6817,0.1225,0.7442,11.2700,46.8300,4.4800,380,5
-0.7017,0.1298,0.7237,11.6200,43.8200,4.1300,424,7
-0.6715,0.1464,0.7422,10.4300,45.0800,2.7300,447,5
-0.6281,0.0854,0.8164,11.2000,65.8000,0.2100,476,10
-0.6651,0.0610,0.8140,17.3600,98.4900,11.1300,442,1
-0.5646,0.1332,0.9189,29.8200,160.1600,19.9500,365,0
-0.5075,-0.0927,1.0409,58.1700,270.2700,48.0200,255,12
-1.3615,0.0010,0.9980,154.9800,376.9500,89.3900,23,0
-2.6176,-0.2777,0.7593,247.0300,349.7900,113.4000,7,4
-1.0838,0.7876,1.0897,347.2700,54.8100,-22.5400,13,14
0.0581,-0.3655,0.9653,141.3300,-225.8900,-148.8900,9,3
0.0351,0.0766,0.5856,184.3100,-226.3800,-129.5700,13,11
-0.3460,0.0561,0.7491,115.8500,-283.7100,-33.7400,8,10
-0.2972,-0.4407,0.7252,121.5200,-323.0500,27.5800,7,8
-0.7481,-0.1513,0.9082,137.3400,-325.9900,-7.6300,8,3
-1.0658,-0.4763,0.9789,141.6100,-343.9800,-45.2900,0,8
-0.8335,-0.0737,1.1053,61.8800,-283.9900,-48.8600,10,5
-1.2356,-0.1337,1.1907,76.4400,-166.1800,-48.2300,3,3
-2.1340,-0.6266,0.7013,159.4600,-76.2300,25.2000,6,9
-2.5181,-0.4636,-0.3597,85.3300,-62.9300,55.1600,6,6
-2.1980,-1.0311,-1.5699,77.9100,27.0200,-43.1900,8,8
-1.6787,-0.0830,-0.7349,136.2900,109.7600,-117.3900,9,2
0.8096,1.5274,1.1297,-1039.2900,-7.9800,-101.8500,4,9
-3.5458,-0.1186,1.3191,455.7000,-55.2300,-121.1000,10,4
-0.3562,-1.4201,0.8511,-124.9500,-33.1100,1.4000,12,121
-0.5383,0.3967,0.9545,-19.6000,-4.4100,3.2900,33,158
-0.5109,0.0947,0.8940,-3.6400,0.2800,-0.6300,68,98
-0.5168,0.0752,0.8930,2.7300,6.3700,-0.0700,108,35
-0.5022,0.0859,0.9130,7.2800,18.3400,0.0000,143,7
-0.5412,0.1118,0.8721,4.6200,25.6200,-0.7000,182,12
-0.5588,0.0986,0.8555,2.8000,28.0000,-2.2400,219,7
-0.5675,0.1244,0.8608,3.5700,33.3900,-4.4800,283,0
-0.5880,0.0810,0.8340,7.5600,37.9400,-3.9900,312,12
-0.6144,0.1137,0.8135,10.5000,40.5300,-3.0100,344,7
-0.6368,0.1039,0.7828,8.8200,41.2300,-1.7500,398,7
-0.6456,0.1396,0.7837,10.7100,42.5600,-0.6300,453,7
-0.6456,0.1571,0.7852,7.4900,52.2200,-5.6000,528,5
-0.5988,0.1381,0.8496,5.2500,77.9100,-8.4700,614,5
-0.5597,0.0468,0.9052,4.9700,119.7000,8.4700,658,3
-0.4660,0.1972,0.9462,15.8200,205.0300,2.6600,642,8
-0.5388,0.0996,0.9633,12.2500,318.5000,-7.2100,394,8
-1.5601,0.6812,1.1248,46.0600,405.5800,-20.3000,88,6
-2.3253,0.4616,0.9892,84.9800,362.2500,-70.9800,14,9
-1.2385,0.4690,1.2615,136.9200,155.1200,-88.2000,14,7
-0.2050,0.5475,1.1619,-3.8500,-169.6800,-91.7000,16,7
0.1932,0.0200,0.6149,55.7900,-189.7000,-63.8400,11,7
-0.2367,0.3138,0.6505,60.2700,-252.7700,-17.5000,10,12
-0.3704,0.0630,0.6368,53.2000,-322.7000,56.8400,12,8
-0.6549,0.2250,0.7491,67.4100,-322.2100,64.4000,12,11
-1.1151,0.3055,0.8433,79.7300,-325.8500,86.9400,8,7
-0.9374,0.4211,1.0321,19.1100,-256.4800,119.5600,12,6
-1.2542,0.3792,0.9462,26.4600,-127.1900,115.2200,5,7
-3.4565,0.0332,0.4685,89.3200,-26.6700,138.5300,8,11
-2.2546,-0.3597,-1.2171,31.5700,-96.2500,142.1000,12,7
-1.9857,-0.8657,-1.6343,233.8000,141.0500,54.3200,13,7
-4.1334,2.4229,0.5368,197.2600,171.0800,-149.2400,9,0
-1.5108,-4.4579,2.5596,-705.1100,16.8000,-125.5800,4,7
-0.1332,1.1897,2.1208,146.3000,-78.2600,-48.8600,9,28
-0.4753,-1.0453,0.7100,22.5400,-0.1400,4.6200,47,241
-0.5763,0.2220,0.8467,-25.8300,-4.2700,2.0300,88,214
-0.5285,0.0903,0.8896,-10.7100,-0.9100,-2.7300,140,143
-0.4948,0.0669,0.9179,0.0000,6.5800,-0.1400,172,54
-0.5036,0.0874,0.9077,8.6100,23.0300,1.0500,207,14
-0.5519,0.1235,0.8647,6.0900,29.8200,0.7000,281,6
-0.5514,0.1122,0.8662,5.2500,33.4600,-1.1200,327,13
-0.5895,0.1098,0.8530,6.5800,36.8200,-4.3400,383,7
-0.5949,0.0976,0.8384,9.5200,41.3700,-4.4100,421,13
-0.6120,0.0727,0.8115,10.4300,47.2500,-2.8700,472,8
-0.6242,0.0932,0.8008,14.2100,51.7300,0.2100,521,7
-0.6329,0.1566,0.8032,12.3200,62.3700,-3.0800,602,12
-0.6198,0.1249,0.8418,4.2700,93.8000,-4.4800,699,9
-0.5104,0.1342,0.9457,16.0300,145.8800,2.1000,727,0
-0.3601,0.2982,1.0126,5.2500,252.7000,-36.4700,696,5
-1.1600,0.3523,1.1751,-7.7700,391.2300,-66.0800,249,8
-1.9988,0.4192,1.1424,53.5500,419.8600,-99.3300,20,8
-2.1096,0.4753,1.4552,28.7700,262.1500,-141.4700,13,7
-2.4712,0.6490,1.9139,12.4600,-10.9900,-81.4100,17,9
0.5300,0.2352,0.7379,-19.3900,-150.0800,-26.1100,25,8
-0.0556,0.2850,0.6598,32.6900,-192.7100,17.0800,15,5
-0.4026,0.1991,0.6793,33.0400,-268.5200,64.5400,15,9
-0.4856,0.1669,0.6090,41.0200,-328.0200,90.3700,13,16
-0.8862,0.0395,0.7647,94.8500,-325.7800,85.8900,14,3
-1.0097,0.3723,0.8672,76.1600,-312.2700,87.0100,12,5
-1.1239,0.4221,1.0673,32.8300,-208.4600,93.6600,13,5
-1.7636,-0.3977,0.7364,87.1500,-62.3000,115.5700,16,16
-3.0388,0.2011,-0.6056,76.1600,-83.5100,118.7200,7,6
-2.0882,-2.3136,-2.2072,164.2900,80.0100,-4.2000,10,11
-2.3239,3.6439,-0.9926,-597.3800,-81.8300,-166.0400,9,4
0.6534,-2.2702,-0.0903,363.6500,174.2300,-79.3800,16,6
-0.0078,-0.3094,0.6285,-156.5200,-11.5500,8.2600,21,19
-0.6041,0.8218,0.8613,-5.1800,-1.3300,-6.1600,83,26
-0.6412,0.1083,0.8657,-20.1600,-9.5900,-10.7800,193,25
-0.4992,0.1220,0.9013,-3.1500,6.3000,-3.6400,289,5
-0.4743,0.0371,0.9565,0.7000,16.3100,-4.2700,371,8
-0.5314,0.1220,0.9096,3.5700,37.1700,-4.9000,463,9
-0.5383,0.1308,0.8808,-0.1400,44.5900,-9.2400,521,8
-0.5778,0.0512,0.8477,9.1000,52.7100,-10.0100,602,9
-0.6149,0.0883,0.8013,11.3400,55.3700,-9.8000,644,16
-0.6632,0.1283,0.7623,5.0400,48.4400,-9.9400,710,3
-0.6642,0.0649,0.7627,-0.6300,47.2500,-11.4800,762,10
-0.6725,0.0576,0.7784,1.3300,56.0700,-9.3800,813,8
-0.6456,0.1391,0.8218,-0.9800,78.2600,-13.7900,860,5
-0.5958,0.1039,0.8711,-11.9000,116.9700,-17.9200,897,2
-0.6056,0.4924,0.9462,-29.4000,194.8100,-65.3100,865,8
-0.9326,0.1098,1.0048,-71.4700,315.0700,-129.6400,430,9
-1.3440,0.1362,1.0614,4.9700,373.8700,-156.4500,84,5
-2.2638,0.5456,1.2698,47.1100,257.8800,-186.4100,15,6
-0.7471,1.0209,1.4757,-24.1500,53.3400,-98.3500,9,5
0.2674,0.8477,0.8818,-82.5300,-138.3200,118.6500,7,7
-0.0449,-0.2137,0.7823,17.6400,-171.2900,151.1300,17,9
-0.3616,0.0171,0.8677,33.0400,-260.8900,128.3800,21,0
-0.5373,-0.3704,0.7730,102.9700,-307.3000,103.8800,19,5
-0.8813,-0.2679,0.9511,64.9600,-297.4300,97.9300,16,6
-1.0077,-0.0283,0.9877,56.5600,-290.4300,75.3200,11,0
-0.9994,0.2206,1.0433,19.1100,-216.0200,69.8600,16,9
-1.1868,-0.0634,0.6520,11.6200,-73.0100,122.5000,15,12
-3.1925,-0.1215,0.1537,44.3800,-26.3200,155.4700,14,3
-1.8061,-0.6505,-1.0380,-12.6000,-32.9000,14.2800,5,5
-1.9705,-0.3709,-1.0224,104.5100,81.5500,-97.9300,12,0
-1.7353,4.6433,-0.3299,-457.5900,-21.3500,-63.4900,6,10
-0.9980,-1.5274,0.9975,425.6700,91.7700,-70.9100,18,14
-0.2806,-0.4665,0.8721,-170.8700,-11.2000,15.5400,13,68
-0.5993,0.3182,0.8647,-41.3000,-11.7600,-5.0400,45,88
-0.5256,0.0439,0.8989,-8.7500,-7.7700,-4.3400,112,102
-0.4978,0.0869,0.9199,-8.2600,2.3100,-1.4000,156,59
-0.4851,0.0644,0.9194,5.4600,15.3300,-0.7700,214,14
-0.5119,0.0732,0.8994,4.4100,24.0800,-2.0300,287,14
-0.5261,0.0952,0.8852,7.4900,35.1400,-3.2900,340,13
-0.5602,0.1137,0.8599,3.9200,40.1100,-6.3000,401,8
-0.5983,0.0791,0.8350,2.3800,42.0700,-7.1400,485,11
-0.6193,0.0776,0.8106,0.3500,44.4500,-10.0100,563,10
-0.6183,0.1274,0.8081,5.3900,49.0700,-9.8700,663,12
-0.5973,0.0737,0.8423,5.2500,60.8300,-11.6200,760,8
-0.5768,0.0346,0.7520,1.6100,93.5900,-9.5200,830,0
-0.4860,0.2518,0.9721,4.0600,150.7800,-2.6600,868,14
-0.4807,0.3709,0.9838,-20.1600,252.9800,-58.8700,807,6
-1.2302,0.5222,1.1195,-36.4000,373.1000,-107.1000,279,7
-1.7548,0.3196,1.0521,34.3700,404.8800,-101.4300,22,8
-2.0037,0.4870,1.4113,7.0700,252.0700,-136.3600,12,5
-2.3844,0.2425,1.5416,-87.0100,-21.6300,-42.8400,10,0
0.3065,0.4294,0.7959,-47.3900,-199.2200,38.0100,16,7
-0.0937,0.2333,0.6583,-32.1300,-235.2000,45.5000,24,12
-0.3294,0.1508,0.6407,-19.3900,-296.5200,58.9400,15,5
-0.5802,0.3411,0.6329,53.9700,-320.1800,69.7900,14,10
-1.1312,0.3070,0.8130,34.5800,-325.1500,86.6600,15,14
-1.1004,0.6969,0.8916,35.7000,-291.2000,111.0200,17,6
-1.2210,0.1830,0.6842,-16.1700,-132.3700,153.5800,18,4
-2.8084,0.0834,0.6500,87.0100,10.0800,222.5300,15,10
-2.6913,0.1215,-0.2967,24.7800,-61.3200,177.1000,11,9
-2.0354,-1.1590,-1.2659,109.9700,27.1600,6.5100,7,6
-4.5974,2.1301,-1.4147,190.2600,60.2000,-237.5100,4,9
-0.3616,-3.7488,0.0952,-700.4900,-203.0700,-103.6000,10,9
-0.5314,1.4445,1.3820,-51.2400,-19.9500,-5.2500,28,238
-0.5588,0.1366,0.9448,124.1100,21.7700,3.7100,61,280
-0.2396,-0.1801,0.8418,-12.6000,5.6000,-1.9600,135,228
-0.4851,0.0698,0.9209,10.3600,10.7100,1.6800,198,75
-0.4860,0.0493,0.9448,9.9400,26.5300,1.6800,285,9
-0.5329,0.1342,0.8877,14.4200,45.9200,2.1700,364,11
-0.5485,0.1405,0.8647,5.3900,50.3300,-3.5000,392,10
-0.5910,0.1098,0.8345,7.2800,56.1400,-7.1400,434,14
-0.6324,0.0825,0.7954,9.9400,59.5000,-5.6000,488,8
-0.6568,0.1440,0.7867,5.1800,62.7900,-7.7700,568,12
-0.6764,0.0878,0.7447,7.4900,70.7700,-5.5300,631,12
-0.6769,0.0937,0.7867,2.3800,83.7900,-1.4700,688,7
-0.6456,0.1000,0.7974,0.5600,121.5900,3.3600,736,7
-0.5266,0.1562,0.9174,22.4000,194.3900,1.8900,730,7
-0.5954,0.1347,1.1082,-4.3400,333.3400,-12.3200,434,4
-1.4489,-0.0024,1.2068,46.8300,441.7700,-25.5500,52,10
-2.3546,0.8696,1.1366,78.4000,365.8200,-111.3000,19,10
-0.5456,0.6647,1.8432,85.4000,81.9000,-73.0100,14,6
0.2738,0.1976,0.9638,-40.6000,-211.6800,-38.7800,19,9
0.0834,0.0102,0.6349,38.5000,-230.7900,-32.8300,16,8
-0.4011,0.2982,0.6744,47.3900,-310.0300,7.9800,19,8
-0.3055,0.0508,0.5309,50.3300,-335.3700,45.1500,14,8
-0.9184,0.2747,0.7666,87.0100,-326.2700,62.1600,21,5
-0.9409,0.3938,0.8545,50.1200,-305.4100,89.2500,14,12
-0.7784,0.5553,0.9121,17.7800,-170.1700,113.3300,11,8
-2.0106,-0.0395,0.7769,50.4700,-9.0300,154.8400,9,8
-2.9763,-0.2245,-0.2508,161.7700,-98.1400,187.6700,0,9
-1.9193,-1.2512,-1.7392,19.8100,43.9600,59.0800,6,5
-3.7483,2.7269,-1.0804,73.8500,32.6900,-239.8900,4,6
0.2084,-5.0484,-0.4719,-935.7600,-331.8000,-87.5000,6,7
-0.8764,0.8818,1.5938,81.2000,-9.2400,-1.1900,15,368
-0.5319,0.3558,0.7793,79.3800,10.8500,0.9100,37,295
-0.4895,-0.0634,0.9228,-5.0400,-4.2700,-9.1700,128,199
-0.4865,0.0791,0.9350,12.1800,14.7000,1.2600,226,40
-0.3904,0.0547,0.9409,12.1100,35.4200,1.0500,329,5
-0.5466,0.1176,0.8808,20.5100,50.2600,-0.7700,394,11
-0.5636,0.1298,0.8716,-1.7500,55.8600,-6.4400,445,12
-0.5802,0.1152,0.8506,12.1800,66.2900,-9.4500,528,9
-0.6222,0.0922,0.8032,14.1400,75.1800,-8.4700,572,9
-0.6637,0.1254,0.7686,8.9600,82.6000,-7.2100,644,10
-0.6808,0.0888,0.7418,3.5700,91.5600,-4.4100,713,11
-0.6954,0.1479,0.7584,-1.6100,110.1800,-1.7500,751,12
-0.6403,0.0976,0.8111,-3.4300,157.1500,-1.6800,756,7
-0.5363,0.3143,0.9609,12.0400,258.3000,-25.2000,636,9
-1.1570,0.1254,1.1117,-2.3800,379.2600,-14.0700,202,5
-2.4600,0.4480,1.1219,57.9600,430.0800,-53.7600,21,13
-1.7168,0.3348,1.3732,69.8600,138.8800,-99.1200,7,6
0.2094,0.9453,1.6490,-12.8800,-172.2700,-71.7500,13,5
-0.0893,0.0142,0.8804,9.1000,-210.1400,-52.9900,19,8
-0.1737,0.3060,0.6798,29.1200,-300.6500,13.0900,20,11
-0.3572,0.0386,0.5949,65.1700,-329.9100,54.2500,17,14
-0.9916,0.2123,0.8008,103.6000,-340.0600,63.7000,17,8
-1.1078,0.2845,0.8540,63.3500,-318.0800,82.1100,16,8
-1.1302,0.2767,0.9814,54.8100,-234.5000,106.0500,10,10
-2.3707,-0.0342,1.2498,33.3200,-211.3300,123.6200,13,7
-1.5631,-0.1508,0.5856,72.8700,-194.8800,121.9400,1,8
-1.0253,-0.4880,-0.4856,26.3200,7.7000,49.4200,6,6
-2.6718,-0.3152,-0.7242,193.4800,110.6700,54.5300,8,0
-0.9911,-0.0595,-0.2938,-99.4000,121.9400,-43.9600,0,4
-1.3264,-0.5012,0.0200,-11.5500,152.0400,-50.3300,7,5
-2.7836,6.0634,0.6676,-51.4500,20.6500,-78.8900,10,10
1.0063,-2.0535,0.5607,182.0700,27.6500,-89.6000,19,5
-0.2025,-1.5118,0.8808,-74.1300,-12.6700,0.2100,220,59
-0.5168,-0.1537,0.8530,5.0400,20.5800,9.6600,354,14
-0.5802,0.2128,0.8969,25.1300,33.7400,0.8400,417,6
-0.5690,0.1157,0.8867,19.5300,41.3000,-0.0700,464,9
-0.5783,0.1152,0.8398,16.9400,56.4200,-3.2200,471,6
-0.6744,0.1493,0.7447,11.2000,52.5000,-4.4800,486,0
-0.7017,0.1610,0.7169,3.5000,40.5300,-7.4200,503,9
-0.6852,0.1118,0.7457,-3.9200,39.3400,-9.1000,548,11
-0.6969,0.0556,0.7120,1.0500,42.0000,-1.2600,603,6
-0.7291,0.1479,0.6915,5.5300,43.8900,0.2800,645,12
-0.6910,0.1752,0.7564,5.3200,55.9300,-3.2200,691,7
-0.6495,0.1005,0.8106,1.6800,106.5400,-2.5900,731,16
-0.5719,0.0932,0.8584,5.7400,152.6000,3.9200,740,3
-0.4519,0.1874,1.0619,6.3700,275.1000,-8.7500,506,8
-1.6880,-0.1913,1.1610,95.6900,425.6700,32.5500,111,7
-2.9709,0.5251,1.2942,149.8000,377.5800,-5.0400,21,3
-0.6207,1.1370,1.7773,134.9600,103.1800,-55.5800,14,7
0.6520,0.2508,1.2586,-7.9100,-112.7700,-99.0500,14,3
-0.1786,0.3270,0.9604,19.1800,-235.3400,-52.3600,15,16
-0.3011,0.1688,0.6603,1.3300,-321.3700,12.3200,12,10
-0.4216,-0.0547,0.6266,56.4200,-333.5500,45.0800,12,6
-0.9311,-0.0698,0.8364,90.6500,-348.1800,18.9000,15,8
-1.0921,0.1166,0.9994,122.2900,-328.1600,10.0100,16,5
-1.1444,0.2777,1.1317,84.5600,-234.4300,28.1400,14,13
-1.5274,-0.2113,0.8540,110.9500,-125.0200,86.5900,10,3
-2.7186,-0.4812,0.0825,147.5600,-49.9100,136.0800,8,6
-1.8432,-0.0034,-1.5104,23.8000,24.7800,99.8900,7,7
-2.2404,0.3445,-0.7076,-27.5100,160.1600,-105.9800,7,8
-0.3445,5.0454,-0.6583,-262.7100,22.9600,-210.9800,10,7
-0.9960,0.7847,0.8374,475.5800,-15.7500,-36.8900,26,58
-0.3738,-1.1361,0.6954,11.6900,2.9400,5.3200,155,79
-0.5256,-0.2948,0.8486,-18.4800,-1.4700,-5.7400,302,22
-0.5007,0.0210,0.9350,0.0700,7.0000,-2.4500,384,0
-0.4641,0.0429,0.9760,23.2400,41.0900,4.1300,443,0
-0.5451,0.1635,0.8911,23.3800,66.0800,0.2800,480,7
-0.6251,0.2186,0.7842,9.7300,68.1100,-9.6600,522,8
-0.6456,0.1254,0.7788,-1.9600,65.7300,-16.7300,602,12
-0.6681,0.0869,0.7642,-2.3800,68.8100,-15.1200,663,6
-0.6827,0.0839,0.7354,0.7700,79.1000,-10.0800,736,16
-0.7174,0.0981,0.6925,2.5900,90.2300,-9.1000,776,9
-0.6988,0.0805,0.7300,-2.5200,124.0400,-6.6500,806,3
-0.6134,0.1269,0.8340,-2.5200,172.3400,-13.9300,814,3
-0.5700,0.0571,0.9145,-10.1500,272.2300,-14.0700,569,6
-1.3015,-0.2333,1.0663,50.1900,402.9900,38.5700,186,8
-2.4268,0.4865,0.9575,60.9700,429.6600,-41.2300,24,5
-2.3546,0.3601,1.3742,88.1300,164.7800,-86.4500,9,12
-1.3352,0.7920,1.7914,1.0500,-225.6800,-81.5500,12,12
0.2133,0.0107,0.6676,15.8200,-227.2200,-58.7300,16,9
-0.2235,0.2679,0.7066,44.7300,-285.5300,30.1700,17,8
-0.3704,-0.1640,0.5739,60.8300,-336.4900,80.2200,17,4
-0.7535,-0.0200,0.6705,100.3100,-330.0500,56.3500,16,8
-1.1663,0.0551,0.8999,74.7600,-311.1500,51.8700,14,5
-0.8618,0.3279,0.7950,22.5400,-235.2000,46.7600,7,8
-1.4601,-0.2718,0.6842,28.9800,-127.6100,70.7000,3,8
-2.6840,0.1962,0.3806,131.7400,-65.2400,130.2000,12,8
-2.2736,-0.3138,-0.7574,7.2800,-17.1500,61.3200,14,8
-2.0681,0.1542,-1.1741,36.9600,85.2600,-74.7600,7,6
-2.7660,1.3132,0.8799,-246.7500,-66.9900,-10.7800,7,6
-0.5602,0.3338,1.3156,17.6400,-11.4100,-18.8300,39,9
-0.5295,0.2894,0.6481,22.4000,15.4700,13.5800,148,6
-0.6261,0.1552,0.8369,-25.9700,-12.7400,-11.6200,295,12
-0.5183,-0.0468,0.9189,-8.6100,-6.7200,-3.9200,355,7
-0.5690,0.0986,0.9287,0.7000,16.2400,2.1700,407,0
-0.5363,0.1220,0.8911,14.4200,38.7100,2.7300,457,3
-0.5705,0.2030,0.8296,7.9800,49.4900,-4.5500,515,4
-0.6051,0.1976,0.8135,-6.1600,52.0800,-13.0200,576,0
-0.6276,0.0732,0.7950,-6.0200,55.2300,-15.4700,663,4
-0.6446,0.0952,0.7808,-0.0700,61.7400,-12.3200,715,8
-0.6881,0.1147,0.7442,-0.3500,69.2300,-12.2500,778,8
-0.6974,0.0932,0.7222,0.2800,78.4000,-11.5500,831,9
-0.6681,0.1069,0.7803,-3.0100,100.2400,-8.5400,863,5
-0.6139,0.1127,0.8262,-2.6600,154.4900,-12.3900,863,3
-0.5080,0.3884,1.0165,-13.7200,259.6300,-57.6800,758,8
-1.4294,-0.1039,1.0204,-31.0800,380.8000,-64.8900,266,0
-2.0921,0.2098,0.9404,34.6500,423.0800,-78.1200,19,3
-2.5049,0.1957,1.2346,101.9200,181.1600,-97.9300,24,5
-1.2556,0.9706,2.0491,-10.1500,-175.8400,-26.4600,16,7
0.2333,-0.0922,0.7349,-21.9100,-205.3100,18.9000,11,3
-0.0366,0.2303,0.6891,31.0100,-252.8400,76.0200,13,11
-0.5085,-0.1972,0.7081,35.4900,-311.3600,97.9300,17,3
-0.8574,-0.1791,0.8028,87.4300,-339.1500,84.9100,24,10
-0.9589,0.0459,0.8023,53.8300,-323.7500,47.6700,11,4
-0.6778,0.0654,0.8530,58.4500,-226.9400,24.7800,18,7
-1.7007,-0.1391,0.9457,74.6900,-105.4200,47.7400,7,8
-2.3336,0.1332,0.3787,126.8400,-85.1200,133.1400,17,10
-2.2038,-0.4314,-0.6222,4.2700,-21.8400,66.2200,8,4
-2.3922,-0.3845,-1.0150,144.2700,40.4600,-32.7600,11,6
-1.6636,2.2062,-0.7998,-221.6900,25.4100,-126.3500,11,2
-0.0117,-1.3361,0.3177,371.4900,93.4500,-61.7400,15,8
0.1200,-0.8501,0.8477,-98.0700,-6.7900,1.4700,40,3
-0.5085,0.3675,0.9223,-43.8900,-10.7800,-6.4400,123,16
-0.6344,0.0156,1.0097,-3.5700,-10.5000,-4.5500,228,8
-0.4416,0.0551,0.9838,12.6700,19.8800,6.7200,337,3
-0.4758,0.0634,0.9379,7.9800,40.1800,6.7900,380,8
-0.5363,0.1845,0.8857,21.2100,59.5700,6.0200,407,11
-0.5822,0.1547,0.8164,5.5300,66.8500,-3.5700,424,9
-0.6276,0.1200,0.7832,4.9000,69.9300,-8.1900,462,6
-0.6515,0.1283,0.7535,3.9900,76.3000,-10.4300,502,10
-0.6944,0.0893,0.7188,7.7700,83.0900,-2.1700,577,9
-0.7183,0.1264,0.6905,11.7600,95.2000,-2.5900,604,10
-0.6920,0.1205,0.7369,10.2900,116.7600,-0.7000,645,2
-0.6490,0.1005,0.7706,14.9100,166.6700,2.7300,615,6
-0.6647,0.0664,0.7588,28.1400,248.8500,10.0100,457,8
-1.0331,-0.2669,0.8823,76.1600,346.0100,73.0100,215,9
-2.0428,0.4285,0.7749,164.9200,427.0700,84.9100,6,7
-3.0032,0.4807,1.2776,271.0400,230.4400,32.8300,11,12
-2.1692,2.2443,1.8149,149.1700,-73.5000,-108.0100,6,9
0.1923,0.0093,0.8999,73.4300,-275.1700,-127.0500,16,5
-0.1391,0.3338,0.7320,87.5700,-297.7100,-36.1900,15,8
-0.3074,-0.1796,0.5968,51.3800,-341.8800,69.0900,13,8
-0.7315,-0.2913,0.7422,97.0200,-335.0900,34.3000,9,7
-0.9057,-0.1684,0.8291,116.5500,-350.6300,3.2900,15,6
-0.7915,0.1420,0.9423,80.5000,-285.8100,9.2400,9,7
-1.4489,0.1503,1.0594,14.7700,-172.1300,14.4200,7,10
-2.2580,-0.4182,0.3733,126.3500,-75.8800,79.7300,10,3
-2.7294,-0.3806,-0.8486,34.7900,-22.7500,119.4900,7,4
-2.1257,-0.5705,-1.5621,116.3400,109.1300,29.9600,9,0
-1.7358,4.1568,-0.8745,-404.5300,-38.0800,-66.0100,3,0
0.3338,-2.2643,-0.0117,383.8100,83.3700,-74.9700,16,8
-0.3104,-1.1361,0.8721,-119.8400,-26.1100,13.9300,47,8
-0.5641,0.5675,0.9145,-43.9600,-3.7100,-4.9700,119,9
-0.5553,0.1889,0.8618,-11.4100,-7.5600,-12.5300,269,8
-0.5431,0.0615,0.9262,-0.3500,12.3200,-7.4200,360,10
-0.5285,0.1113,0.9292,14.4200,34.7900,0.4900,431,6
-0.5612,0.1635,0.8901,18.8300,53.1300,0.7700,441,7
-0.6129,0.1244,0.7964,9.8700,58.5200,-1.7500,420,6
-0.6603,0.1113,0.7437,8.9600,54.2500,-5.8100,418,8
-0.6832,0.1337,0.7120,4.4100,48.7200,-8.4700,479,7
-0.7008,0.1044,0.7198,-1.3300,47.9500,-7.2100,586,7
-0.6817,0.1645,0.7671,2.3800,57.1900,-4.9000,683,8
-0.6095,0.1235,0.8706,1.6100,95.0600,-6.0200,750,3
-0.5134,0.0249,0.9165,5.2500,162.8900,-1.5400,782,6
-0.4290,0.2601,0.9941,11.6900,275.1000,-18.9700,716,6
-1.0551,-0.5129,0.9765,68.2500,422.9400,58.1700,237,9
-2.1086,0.7174,0.9506,109.4100,461.3700,7.9100,20,8
-2.5069,0.5671,1.6582,90.5100,217.7700,-64.1200,14,4
-0.8960,1.0594,1.7119,-76.3700,-237.7900,-85.6100,9,6
0.1591,0.0181,0.7271,-16.7300,-252.9100,-109.8300,17,10
-0.3006,0.4817,0.6383,-8.1900,-309.2600,-76.7200,16,8
-0.3060,0.1405,0.4494,-13.7200,-354.4100,-11.8300,20,4
-0.6847,0.4836,0.6364,59.1500,-322.7700,23.3800,15,6
-1.0619,0.4470,0.7686,65.7300,-320.8800,62.5800,13,7
-0.9506,0.8677,0.7847,11.4800,-192.7800,105.0000,8,7
-2.4624,-0.1225,0.6622,10.7800,-131.0400,211.4000,3,7
-2.5737,0.1503,0.0508,38.2200,-22.2600,247.8000,7,2
-2.3038,-0.6856,-1.2356,-43.8200,8.1900,92.6800,7,7
-2.3453,0.1161,-0.9418,80.5000,60.7600,-47.1800,7,8
-3.5321,-0.8398,2.1984,-331.0300,-167.8600,-14.9800,10,8
-0.6403,0.2728,0.9204,-6.0900,-6.8600,-14.8400,66,7
-0.4504,0.6090,0.9135,92.4000,12.6000,5.7400,248,11
-0.6568,0.1586,0.8233,-39.4800,-20.0900,-15.1900,406,8
-0.4851,0.0249,0.9726,-8.3300,-7.5600,-3.2900,516,8
-0.4587,0.0215,0.9716,9.3100,25.9700,1.1200,575,12
-0.4958,0.1000,0.9365,13.3700,52.0800,1.8900,615,8
-0.5514,0.0996,0.8662,14.3500,72.3100,0.4200,623,6
-0.6407,0.1576,0.7666,18.2700,77.0000,-1.4700,626,1
-0.7066,0.2020,0.6993,4.7600,67.1300,-12.3200,671,7
-0.7330,0.1928,0.7286,-1.4000,62.3000,-21.4900,748,6
-0.7218,0.1196,0.7081,-3.2900,64.3300,-21.2800,822,6
-0.6944,0.0893,0.7471,-4.9700,78.6100,-18.9000,904,2
-0.6608,0.0747,0.8052,-11.4100,116.9000,-16.5200,943,7
-0.5632,0.0400,0.8579,-7.2100,184.3800,-13.6500,920,4
-0.6251,0.2987,1.1219,-21.4900,318.3600,-49.3500,647,9
-1.4352,0.0942,1.0858,-6.4400,416.0800,-50.8200,147,0
-2.6269,0.4353,0.9599,69.7200,355.6700,-68.1100,17,10
-0.6334,1.4528,1.9027,161.2800,34.5100,-62.7900,24,6
0.6490,0.4065,1.0731,-82.9500,-199.2900,-28.0000,14,6
-0.1118,0.2503,0.8057,66.0100,-240.5900,23.5200,11,8
-0.3206,0.1976,0.6520,-3.9900,-320.1100,66.7100,11,10
-0.4382,-0.0259,0.5534,47.3900,-328.9300,91.1400,15,8
-1.0307,-0.0493,0.8516,44.3100,-321.5800,82.8800,20,12
-1.0102,0.2015,0.8745,54.9500,-312.2700,60.6900,18,13
-1.0385,0.5441,0.8106,20.3000,-201.9500,57.2600,14,0
-2.3897,-0.1898,0.3714,124.6000,-71.0500,154.6300,7,4
-2.2965,0.0795,-0.5065,14.3500,-11.0600,147.9100,7,2
-2.2306,-0.7349,-1.0316,33.6700,31.4300,30.1000,8,7
-2.6479,1.8559,-0.4455,105.9100,216.6500,-167.8600,12,7
-2.3526,-1.8642,3.8908,-710.9900,-144.4800,-68.8800,9,6
0.2030,0.6066,1.2527,-72.1700,-52.9200,-15.7500,58,8
-0.5026,0.3109,0.9150,91.4200,9.5900,4.4100,238,34
-0.5329,-0.1801,0.8945,-2.1700,1.9600,-1.3300,402,9
-0.3855,0.1074,0.9292,5.8100,14.4200,1.2600,507,4
-0.4929,0.0732,0.9360,12.0400,35.6300,0.0700,591,5
-0.5148,0.1078,0.9126,9.1000,58.0300,-1.0500,608,0
-0.5915,0.1220,0.8189,12.2500,70.0700,-0.4200,592,6
-0.6403,0.1552,0.7403,7.1400,66.7800,-4.7600,563,7
-0.6969,0.1313,0.6920,8.6100,55.1600,-6.7900,585,1
-0.7257,0.1454,0.6944,1.8900,43.8200,-10.4300,661,11
-0.7081,0.0703,0.7066,-1.8900,41.5100,-4.6900,756,8
-0.6681,0.1444,0.7876,0.0000,54.9500,-5.3900,832,6
-0.6105,0.0810,0.8628,-3.7100,94.2200,-1.2600,896,3
-0.5329,0.1025,0.8862,7.7700,161.8400,0.3500,901,9
-0.4870,0.2874,0.9501,1.0500,271.9500,-31.5700,791,8
-1.1551,-0.3465,0.9101,19.3900,408.9400,12.1100,268,7
-2.2907,0.2523,0.8852,87.0800,436.2400,18.5500,27,6
-2.6152,0.2791,1.4318,149.2400,193.8300,-14.2800,19,8
-2.2980,0.7930,2.4039,-57.2600,-165.1300,-81.3400,17,5
0.2118,-0.0322,0.8886,30.0300,-239.5400,-93.3100,16,9
-0.1303,0.5290,0.7066,24.0800,-296.8700,-50.6100,18,5
-0.3802,0.0649,0.5846,15.4700,-346.9900,26.7400,14,3
-0.8198,0.2186,0.6749,80.9900,-328.0900,49.5600,15,3
-1.2015,0.1357,0.8223,64.4700,-340.5500,54.7400,14,9
-0.8745,0.4758,0.7686,32.0600,-225.3300,84.9100,16,6
-1.3196,-0.0264,0.5998,9.0300,-69.7200,145.8800,13,8
-3.1652,0.5231,0.3348,19.3200,-26.8100,159.8800,13,8
-1.7875,-0.5675,-0.9018,-138.9500,-37.5200,49.0700,12,6
-2.2253,-0.2538,-0.8574,-50.0500,67.9700,-37.3100,7,4
-1.6109,-0.0703,-0.3470,0.2800,144.1300,-14.5600,12,8
0.0649,-0.5441,1.6865,40.8800,42.9800,-31.9900,20,9
-0.5114,-0.2704,0.9472,-49.9800,-18.9700,-6.3000,361,0
-0.5802,0.3289,0.9121,-27.1600,-17.9200,-5.1100,651,4
-0.4616,-0.0576,0.9877,-15.0500,10.8500,-4.6200,806,12
-0.4934,0.1532,0.9760,-0.8400,41.4400,-3.9900,892,0
-0.5163,0.1005,0.9443,10.5700,72.0300,-6.5800,941,1
-0.5924,0.0834,0.8428,18.2000,87.0800,-11.7600,947,6
-0.6593,0.1200,0.7320,19.6700,95.8300,-21.8400,924,7
-0.7491,0.1035,0.5993,3.5700,81.9700,-23.7300,889,9
-0.8320,0.0752,0.5451,-11.3400,57.2600,-23.5900,898,5
-0.8037,-0.0229,0.5632,-9.1700,38.4300,-15.8900,927,0
-0.7681,0.0024,0.6364,-14.0000,32.4100,0.3500,996,8
-0.7598,0.1108,0.7022,-17.9200,46.3400,-3.8500,1049,6
-0.6276,0.0620,0.8520,-22.0500,99.1200,-7.0700,1074,6
-0.6115,0.1147,0.8935,-16.1000,190.4700,-19.0400,979,3
-0.9023,0.0576,1.1346,-56.4900,328.5800,-38.6400,482,0
-1.5504,-0.0117,1.0795,-3.5000,416.5700,-42.1400,120,8
-2.7533,0.3997,1.1575,67.2700,285.3900,-67.9000,38,6
-1.1439,2.1687,1.9744,-43.2600,-45.3600,-44.1700,27,7
0.1386,-0.2094,1.1341,-63.8400,-182.7700,-17.9200,25,11
-0.0825,0.4226,0.8062,26.1800,-268.5900,11.2700,16,6
-0.2401,0.1313,0.6076,-13.5100,-321.5800,47.6000,11,8
-0.6471,0.2338,0.7008,62.2300,-317.1000,74.0600,18,4
-1.1073,0.1791,0.8911,28.4900,-322.3500,87.0100,18,3
-1.0697,0.6110,0.8472,14.8400,-261.9400,93.9400,12,0
-1.5465,0.4065,0.7427,-35.2800,-161.5600,112.9800,15,8
-2.2590,-0.0864,0.3611,78.8900,-65.1000,157.9200,18,7
-2.1667,0.1645,-0.3845,62.5100,-15.4000,153.3000,7,8
-2.2248,-0.2977,-0.8154,74.2700,48.3700,54.7400,13,8
-1.5323,-0.1205,-0.6793,-36.9600,105.2100,-59.9200,3,6
-2.2019,4.1651,1.0497,43.7500,75.3200,-170.3100,8,0
-2.3609,-0.0063,1.8466,298.0600,-58.2400,-95.0600,84,8
-0.4006,-0.6842,0.9228,10.9200,10.4300,0.4900,359,27
-0.5451,-0.0693,0.8569,-10.9200,18.7600,-0.3500,574,8
-0.5461,0.1728,0.9228,6.4400,28.2100,-5.1100,708,8
-0.5402,0.0756,0.9448,3.7800,41.1600,-5.1800,780,5
-0.5383,0.0264,0.9296,11.7600,72.3800,-4.6900,787,12
-0.6124,0.0405,0.7867,34.3700,88.2000,-2.6600,747,8
-0.6949,0.1566,0.6891,19.9500,79.1000,-6.8600,736,3
-0.7730,0.1976,0.6178,0.7700,62.7200,-17.2200,747,9
-0.7696,0.1049,0.6525,-10.5700,52.2200,-19.1100,828,3
-0.7862,0.0903,0.6495,-11.6200,52.3600,-8.6800,892,7
-0.7315,0.1728,0.7349,-15.1900,64.4000,-14.2100,955,9
-0.6276,0.1093,0.8501,-22.1200,113.7500,-22.8200,985,6
-0.5095,0.2216,0.9340,-22.9600,210.0700,-36.1200,911,6
-0.8560,-0.0483,1.0829,-58.8700,364.8400,-45.1500,447,5
-1.8036,0.0932,0.9692,24.9200,433.6500,-43.1200,113,5
-2.4693,0.4651,1.2068,21.9800,270.3400,-88.6900,37,9
-1.4567,1.4445,2.0911,-25.6900,-74.3400,-45.8500,22,3
0.0888,0.1440,1.0921,-62.7200,-212.3100,-33.2500,18,6
-0.3645,0.6051,0.7964,2.3800,-327.3900,24.7800,16,10
-0.2264,0.1318,0.4446,-30.3100,-333.6200,57.2600,17,0
-1.0507,0.4714,0.8584,37.1700,-326.8300,85.2600,14,8
-0.9579,0.2440,0.8472,18.1300,-304.0100,97.6500,15,9
-0.9604,0.6998,0.8647,5.8800,-232.2600,121.8700,15,0
-1.6860,0.3489,0.6276,-17.5700,-109.7600,138.5300,15,5
-2.7650,0.0532,0.1967,87.4300,-60.3400,175.3500,14,3
-2.0559,-0.1937,-0.9887,21.2800,31.4300,104.0900,19,12
-2.0516,0.1527,-1.0038,99.6800,84.9800,17.1500,11,3
-4.3935,2.6489,-0.2928,25.9700,50.1200,-188.2300,7,7
-0.3040,-1.0682,0.4490,294.8400,49.0700,-70.3500,44,3
-0.4026,-0.8984,0.7769,1.6100,3.8500,3.9200,339,0
-0.6515,0.0947,0.7779,-41.0200,-4.4100,-7.1400,571,9
-0.5412,0.0425,0.9096,-2.5900,5.3900,-7.3500,677,3
-0.5134,0.0839,0.9462,-5.6000,25.7600,-6.6500,755,6
-0.4748,0.0854,0.9414,3.3600,55.1600,-6.8600,766,4
-0.6051,0.0820,0.8369,22.4700,76.5100,-7.4200,768,7
-0.6710,0.1220,0.7096,19.7400,72.1700,-6.3000,751,8
-0.7505,0.1874,0.6637,2.5900,59.3600,-18.7600,787,8
-0.7374,0.1186,0.6827,-6.5800,51.0300,-22.5400,835,7
-0.7432,0.0590,0.6920,-12.6000,51.8000,-17.8500,916,1
-0.7252,0.0654,0.7149,-13.9300,58.5200,-11.4800,974,6
-0.6710,0.1215,0.8159,-16.3800,94.2900,-15.4000,993,9
-0.6022,0.1279,0.8550,-20.5800,159.7400,-25.0600,973,6
-0.5836,0.3250,0.9555,-32.5500,265.9300,-62.0200,801,6
-1.4396,-0.0630,1.0311,-15.2600,372.7500,-50.4000,262,8
-2.5288,0.4133,1.1200,18.8300,389.3400,-76.6500,35,5
-2.3214,0.4880,1.3430,51.6600,161.1400,-101.2900,28,5
-0.1132,0.7940,1.7578,-65.1700,-184.1700,-6.0200,15,11
-0.1557,0.1757,0.8237,18.3400,-224.9800,24.2900,22,8
-0.5202,0.2303,0.7174,3.5000,-301.9800,57.4000,16,9
-0.2869,0.0020,0.4709,72.1000,-313.7400,79.0300,13,6
-1.0248,0.1942,0.7969,63.2800,-312.1300,86.5900,23,2
-0.8735,0.2103,0.8550,34.0200,-282.8000,93.7300,10,4
-1.1478,0.6124,0.9618,16.8700,-200.1300,101.4300,15,2
-2.0091,0.0142,0.6539,16.8000,-132.5100,129.2900,15,5
-2.4337,0.0049,-0.2342,71.1200,-47.0400,148.5400,11,4
-2.8690,-0.4904,-1.0380,86.0300,18.6200,90.2300,10,8
-1.9998,0.3167,-0.8833,64.1200,131.2500,-74.2700,12,0
-3.3448,-1.2254,3.0861,-479.3600,-163.3800,-31.5000,12,2
-0.2284,0.4826,1.1180,-5.8800,-21.6300,-11.6200,71,7
-0.3572,0.2694,0.8813,73.5000,12.9500,7.7000,300,3
-0.5934,-0.0059,0.8574,10.0800,1.9600,-6.7200,485,7
-0.5202,0.0781,0.9160,-1.4000,11.9000,-2.8700,598,10
-0.5090,0.0620,0.9257,3.6400,34.4400,-0.5600,672,2
-0.5378,0.1132,0.8999,14.0700,59.7100,-4.8300,697,4
-0.6159,0.0937,0.8013,9.7300,70.2800,-4.5500,681,7
-0.6671,0.1288,0.7344,15.8200,70.6300,-6.7900,667,4
-0.7281,0.1615,0.6773,4.2700,59.0100,-12.3200,685,5
-0.7442,0.1093,0.6730,0.4200,52.2900,-13.4400,743,0
-0.7305,0.0795,0.6759,-0.2800,52.7800,-8.2600,807,7
-0.7154,0.1196,0.7276,-8.7500,60.9000,-9.1700,866,5
-0.6276,0.0669,0.8286,-11.3400,103.6000,-9.8700,900,8
-0.5519,0.2313,0.8979,0.1400,180.3900,-14.9100,875,1
-0.5031,0.0376,1.0741,-24.7100,315.9800,-17.5000,599,2
-1.5172,-0.1157,1.0497,53.6900,421.2600,22.4000,145,8
-2.8299,0.5495,0.9614,93.3100,333.2000,-46.6200,38,3
-0.2684,1.3630,2.1989,83.0200,25.6200,-61.6700,19,1
0.3845,0.5100,1.1775,-27.7900,-179.5500,-73.9200,19,3
-0.1679,0.3094,0.8325,3.5000,-247.1700,-18.7600,13,9
-0.4031,0.1503,0.5558,-3.4300,-311.5000,50.1200,25,4
-0.7276,0.1815,0.6320,49.6300,-310.0300,69.3000,17,7
-0.9443,0.0688,0.7422,51.9400,-303.3800,65.8700,12,6
-0.9257,0.2840,0.8389,42.9100,-263.0600,75.3200,17,6
-1.3161,0.4109,0.8603,20.0900,-165.1300,67.7600,16,8
-1.9715,-0.0874,0.4377,74.7600,-88.9000,95.6900,12,7
-2.5435,0.1767,-0.2079,56.4200,-50.2600,102.5500,15,3
-2.0516,-0.5144,-1.0814,44.3100,27.5800,5.4600,7,12
-3.5961,1.7212,-0.3289,151.0600,181.3700,-163.8700,12,8
-0.6495,-3.2106,1.2932,-499.7300,-183.5400,-103.8100,16,3
-0.3314,-0.1064,1.0575,-162.7500,-17.4300,-1.5400,58,8
-0.6354,0.5734,0.8779,14.9100,3.3600,1.3300,207,5
-0.6051,0.0966,0.8833,-19.6000,-5.8100,-11.7600,393,7
-0.5378,0.0874,0.9262,-4.1300,11.6200,-5.8800,519,7
-0.5480,0.0703,0.9204,5.5300,31.4300,-1.7500,602,7
-0.5397,0.0698,0.9023,13.5800,52.6400,-2.1000,625,4
-0.5988,0.1059,0.8159,15.6800,65.0300,-1.0500,612,6
-0.6827,0.1371,0.7408,17.4300,63.2100,-4.3400,589,4
-0.7257,0.1454,0.6822,8.1200,51.5900,-8.4000,620,6
-0.7349,0.1557,0.6842,0.0000,41.1600,-13.5100,683,7
-0.7330,0.0815,0.7003,-4.3400,39.1300,-12.5300,759,4
-0.7115,0.1093,0.7359,-10.4300,48.9300,-9.1700,833,6
-0.6466,0.1074,0.8394,-10.2200,84.0700,-8.3300,877,5
-0.5661,0.1352,0.8886,-12.3900,152.4600,-12.9500,880,3
-0.4602,0.2591,1.0126,-23.5200,263.5500,-41.7200,788,8
-1.2542,-0.2381,1.0224,-9.4500,403.2700,-10.8500,228,12
-2.7923,0.4641,1.0228,75.0400,394.5900,-40.6000,32,3
-2.0681,0.4436,1.3640,64.6100,121.1000,-84.3500,19,0
0.2996,0.3977,1.5567,-24.1500,-167.3700,-47.1800,18,9
-0.1127,0.2694,0.8555,-4.9000,-215.8100,-18.4800,16,3
-0.3294,0.3123,0.6900,-2.0300,-281.5400,42.2800,15,8
-0.6007,-0.0874,0.6500,39.7600,-306.9500,67.4800,14,6
-0.9511,0.1142,0.8052,42.3500,-318.5700,54.6700,16,7
-1.0926,0.2962,0.8452,48.6500,-304.5700,54.1800,9,8
-1.0063,0.4748,0.7832,23.1700,-211.6800,61.9500,14,6
-1.9193,0.0029,0.5461,61.4600,-112.8400,107.8700,12,0
-2.4951,0.0244,-0.0425,99.8200,-57.8200,167.7900,17,4
-2.2141,-0.1903,-0.9794,46.9700,31.9900,108.8500,19,8
-2.1901,0.4587,-1.0741,-17.7800,119.9100,-44.0300,8,4
-4.4886,-1.4542,3.2535,-350.2800,-180.9500,-13.3000,11,2
-0.8603,0.2582,1.0414,-55.0900,-37.1700,-14.2100,57,8
-0.4221,0.4143,0.9355,97.7200,18.5500,9.0300,256,5
-0.6403,0.1215,0.8252,-8.6100,-4.2700,-7.2800,408,7
-0.4968,0.0327,0.9101,-4.1300,-1.0500,-3.1500,497,8
-0.4860,0.0659,0.9301,13.5800,22.4000,0.5600,573,5
-0.5407,0.0844,0.9004,16.0300,43.3300,-0.5600,594,0
-0.5695,0.1030,0.8589,21.1400,58.4500,-0.6300,604,4
-0.6334,0.1693,0.7706,8.8200,57.6100,-5.1100,607,2
-0.6749,0.1454,0.7393,-1.1900,49.0000,-12.3900,646,0
-0.6934,0.1244,0.7413,-5.4600,42.2800,-11.2000,707,0
-0.6895,0.1059,0.7466,1.6800,46.2000,-10.5700,767,5
-0.6886,0.0966,0.7657,-0.4900,53.6900,-9.5200,823,3
-0.6398,0.1044,0.8081,-2.3100,77.6300,-11.2700,888,8
-0.6051,0.0678,0.8477,-8.4000,124.4600,-8.6800,909,7
-0.5187,0.2704,0.9228,-1.7500,214.2000,-28.0700,878,7
-0.7305,0.0703,0.8755,-36.0500,343.0000,-38.2900,508,8
-1.4728,0.2186,1.0853,43.2600,417.0600,-25.9000,116,4
-2.4463,0.7862,0.9267,44.5900,306.6700,-95.9000,36,9
-1.0077,1.0502,1.7466,-47.4600,-34.3700,-48.2300,24,8
0.1942,0.3030,1.0165,-60.2700,-179.2700,-36.1200,24,7
-0.2869,0.3279,0.8325,0.9800,-266.7700,0.2100,15,6
-0.2894,0.0849,0.4973,0.0700,-320.0400,42.4200,18,0
-0.7061,0.1279,0.6525,48.5100,-306.6700,63.9100,13,2
-0.9926,0.1386,0.7876,58.1000,-295.6800,78.6800,13,6
-0.8789,0.3392,0.8774,43.0500,-249.6200,96.1800,16,4
-1.3796,0.4216,0.9321,17.2900,-155.9600,101.1500,14,8
-2.1965,-0.0956,0.4299,58.2400,-65.2400,121.1700,14,3
-2.3892,-0.0844,-0.5788,60.6200,-40.2500,113.3300,13,7
-2.5220,-0.5339,-1.3644,112.1400,59.6400,44.7300,12,8
-1.9564,1.9915,-1.2322,-270.5500,42.0700,-194.9500,0,3
1.1712,-3.0407,-0.2113,59.2900,38.4300,-56.2100,26,6
-0.4563,-0.6276,0.7881,-30.5200,-2.2400,6.3000,225,6
-0.5690,0.4621,0.8291,-33.7400,-0.6300,-5.0400,440,7
-0.5422,0.1488,0.8818,2.8000,-0.7000,-4.2700,570,8
-0.4875,0.0454,0.9379,1.1200,20.1600,-2.1700,630,0
-0.5036,0.1347,0.9477,6.1600,46.2700,-2.3800,658,3
-0.5841,0.0805,0.8330,9.1000,61.0400,-1.6100,651,5
-0.6515,0.1166,0.7496,12.1800,59.8500,-3.2900,604,7
-0.7017,0.1166,0.7047,3.2200,46.9000,-7.4900,579,7
-0.7110,0.1191,0.7056,0.9100,35.2100,-9.3100,616,3
-0.7037,0.0771,0.7247,2.1700,31.8500,-5.7400,684,6
-0.7076,0.1210,0.7354,2.5900,33.6000,-3.2900,753,8
-0.6446,0.1103,0.8223,-1.8200,57.2600,-6.5800,805,6
-0.5822,0.0859,0.8838,-0.2100,122.5700,-3.1500,831,6
-0.4787,0.1884,0.9633,15.8200,193.8300,-13.0900,819,5
-0.4612,0.0429,1.0224,-12.3900,330.1900,-3.2900,527,4
-1.7280,0.3728,0.8896,42.7000,404.8800,-7.7000,80,6
-2.3897,0.9692,1.0126,22.0500,258.5800,-94.7100,23,4
-0.2074,0.8433,2.0086,-81.7600,-3.3600,-73.2200,22,5
0.1147,0.5758,1.0643,-44.9400,-130.8300,-80.2200,16,8
-0.1679,0.4236,0.8203,-75.0400,-224.4200,-26.3900,19,4
-0.3787,0.1840,0.6549,-60.0600,-288.3300,35.0700,14,4
-0.7291,0.3601,0.6383,-27.0900,-305.2000,35.0700,17,11
-0.8686,0.4451,0.6886,-31.2900,-310.1700,48.7900,15,3
-0.8828,0.7266,0.7032,-11.1300,-264.3900,91.6300,16,0
-1.4489,0.9331,0.9428,-39.9000,-188.2300,131.0400,16,5
-1.5670,1.0697,0.4031,-50.8900,-135.5200,195.7900,13,5
-1.9984,-0.2679,0.0346,15.2600,-4.1300,235.4100,15,8
-2.5303,0.3245,-0.5153,47.1100,44.3800,179.2700,13,6
-1.4733,-0.2538,-1.0770,77.1400,69.9300,101.5700,14,2
-5.3324,2.6645,-0.2645,256.7600,121.3800,-154.7000,7,2
0.1640,-2.5069,1.2332,-189.7000,-104.2300,-92.3300,20,4
-1.0990,-0.5275,0.8857,-164.2200,-40.3200,-9.8700,158,0
-0.4890,0.6725,0.9701,-15.5400,-24.9900,-7.5600,335,3
-0.5231,0.0556,0.9199,-10.0800,-19.7400,-5.1800,463,11
-0.4841,0.0078,0.9409,-0.8400,7.0000,-1.4000,540,6
-0.5109,0.0869,0.9052,1.8200,23.0300,-2.6600,583,1
-0.5319,0.1035,0.8867,11.3400,36.5400,-4.0600,591,0
-0.5968,0.0854,0.8086,5.8100,38.5000,-2.8700,598,9
-0.6471,0.0991,0.7442,-0.1400,25.2700,-1.6800,623,5
-0.6686,0.1357,0.7530,-3.8500,10.9200,-4.6200,664,3
-0.6388,0.1054,0.7749,-7.9100,0.7700,-5.1100,704,0
-0.5876,0.0800,0.8403,-11.1300,3.7100,-5.4600,754,3
-0.5636,0.0800,0.8886,-2.9400,20.7900,-5.3200,783,1
-0.5275,0.0415,0.9238,2.5900,54.4600,-3.9900,823,10
-0.5061,0.1420,0.9550,11.0600,95.9700,-7.9800,848,2
-0.3753,0.2089,1.0658,15.9600,194.2500,-42.7000,831,8
-0.5671,0.4460,0.9989,-39.8300,322.7700,-85.9600,487,8
-2.0106,0.1562,0.9628,-85.6100,254.8000,-120.6100,62,3
-1.4250,0.6798,0.6827,-185.0800,121.1700,-129.7100,16,4
0.4031,0.5378,0.8330,-172.1300,13.3700,57.2600,18,3
-0.1391,0.7042,0.8535,-206.7100,-101.2200,100.5200,10,12
-0.2045,0.3870,0.7579,-169.2600,-177.0300,88.9700,12,1
-0.5573,0.5671,0.7388,-137.2700,-243.0400,72.9400,16,8
-0.7598,0.7735,0.7340,-118.3000,-267.6800,88.9000,12,9
-1.0775,1.1917,0.7549,-96.8800,-258.6500,128.5200,15,8
-1.1668,1.3615,0.6656,-127.4700,-212.9400,209.3000,14,5
-1.5528,1.4318,0.6446,-125.5100,-144.3400,314.0900,16,4
-1.2947,1.1463,0.4368,-125.8600,-73.5000,344.8200,16,2
-1.2410,0.8281,0.4104,-112.7000,29.4000,285.9500,16,3
-2.0740,-0.2411,0.4577,-5.9500,40.1100,252.7700,11,6
-1.1985,0.6120,-0.0473,7.7700,-5.1100,177.3800,7,8
-1.2942,0.0566,-0.2401,97.5800,62.5100,115.6400,12,5
-1.1497,0.5788,-0.2377,33.9500,70.9100,96.8100,11,5
-3.2564,2.3961,0.1386,88.2700,37.9400,-80.7800,11,5
-0.3841,0.9887,1.9505,-245.1400,-56.2100,-104.7900,11,3
-0.7388,0.3719,1.1727,-97.2300,-80.8500,-35.7000,57,9
-0.4846,-0.0839,0.9062,42.9100,-21.7000,4.3400,219,8
-0.5109,0.0864,0.8891,-3.9900,-9.5200,2.3100,332,8
-0.5100,0.1127,0.9121,-1.6800,4.0600,0.5600,394,6
-0.4890,0.0966,0.9306,12.7400,22.3300,0.9800,445,7
-0.5017,0.1244,0.9013,14.3500,43.5400,2.0300,480,0
-0.5846,0.1830,0.8320,8.8900,49.7000,0.2100,502,4
-0.6417,0.1889,0.7540,0.2100,41.5800,-3.8500,527,5
-0.6573,0.1571,0.7525,-0.8400,30.9400,-5.5300,579,7
-0.6529,0.1200,0.7706,-4.2000,25.2700,-4.9700,628,3
-0.6632,0.1078,0.7613,-0.7000,24.6400,-1.8900,666,8
-0.6393,0.1274,0.7915,1.0500,29.0500,-0.9800,700,8
-0.6115,0.1391,0.8438,1.8200,49.9800,-5.3200,752,1
-0.5836,0.1244,0.8657,6.8600,85.6100,-6.6500,764,3
-0.5085,0.1957,0.9067,18.1300,145.1800,-13.2300,767,8
-0.4768,0.3806,0.9697,2.3100,235.4800,-49.4200,699,3
-1.1170,0.2699,0.9462,-54.3200,329.7700,-81.6200,260,3
-1.8881,0.4880,0.8486,-37.5200,291.6900,-98.9100,27,4
-1.8432,0.4592,0.8545,-105.5600,156.1000,-102.6900,14,7
0.0664,0.5187,1.1702,-155.1900,0.8400,-9.1000,20,9
0.0454,0.4509,0.9950,-101.5000,-136.3600,1.8200,24,11
-0.1601,0.4724,0.8076,-97.3700,-220.7100,23.1700,17,0
-0.4587,0.3777,0.6349,-70.0700,-266.8400,54.6000,19,6
-0.9218,0.5924,0.7681,-28.4200,-285.6700,65.9400,18,7
-0.9043,0.7515,0.7071,-23.0300,-281.6100,100.0300,16,7
-0.8716,0.8511,0.7559,-29.1900,-213.0800,167.3700,17,8
-1.1590,0.8555,0.7242,-44.3100,-77.5600,194.9500,18,2
-1.6641,0.3928,0.5065,-8.1900,-26.8100,193.6200,11,8
-2.0989,0.1440,0.0595,72.2400,-43.0500,157.8500,13,7
-2.0452,-0.2850,-0.4470,69.1600,-8.1900,20.0200,15,2
-1.6236,0.1654,-0.6969,114.3100,47.8100,-34.1600,18,10
-1.7890,0.0078,-0.3894,-266.9800,37.8700,-103.3200,6,5
-0.4338,-0.3045,0.4031,181.2300,7.8400,-40.4600,9,1
-0.4758,-0.3680,0.7657,-0.0700,-22.5400,3.9200,35,8
-0.5978,0.2357,0.8540,-42.1400,-25.8300,-8.9600,124,3
-0.4846,-0.0063,0.9623,-39.1300,-16.0300,-3.7800,228,8
-0.4958,0.1264,0.9287,6.0200,10.1500,0.7000,347,6
-0.4982,0.1293,0.9345,9.2400,29.1200,-1.1900,472,4
-0.5202,0.1230,0.9135,10.8500,48.7900,-1.1200,527,8
-0.5641,0.1215,0.8364,15.2600,59.9200,0.4900,524,10
-0.6383,0.1796,0.7652,9.9400,57.7500,-3.9900,520,8
-0.6720,0.1718,0.7354,0.0000,47.8100,-9.7300,560,6
-0.6852,0.1337,0.7349,-1.7500,42.2100,-10.3600,628,4
-0.6949,0.0878,0.7183,1.5400,39.9000,-4.7600,688,0
-0.6793,0.1513,0.7564,3.0800,45.9200,-2.6600,744,12
-0.6373,0.1240,0.8086,2.7300,67.3400,-5.8800,794,8
-0.5973,0.1279,0.8686,3.0100,114.0300,-2.6600,816,7
-0.4387,0.4695,1.0385,15.1900,213.0100,-41.8600,789,1
-0.8594,0.3235,1.0858,-43.3300,347.9000,-96.3900,343,0
-1.7422,0.1957,0.9560,31.9200,381.4300,-78.7500,36,6
-2.3200,0.2269,0.9960,39.4100,203.7700,-88.7600,24,7
-0.4568,0.7559,1.3766,-56.5600,-37.3100,-24.9900,19,7
0.1210,0.2142,0.9296,-4.8300,-156.0300,5.3900,9,5
-0.0312,0.2630,0.7413,-10.6400,-221.0600,40.1100,15,8
-0.4582,0.0820,0.7159,3.9900,-271.6000,73.3600,15,5
-0.8608,0.1078,0.8154,48.0900,-295.7500,78.0500,15,1
-0.9233,0.1186,0.7857,34.8600,-284.4100,62.4400,13,9
-0.8291,0.2664,0.8520,20.9300,-226.3800,66.2200,10,2
-1.2249,0.3875,0.8730,19.4600,-133.0700,90.5100,12,5
-1.9847,-0.0044,0.6983,10.5700,-133.1400,124.3200,12,6
-1.5216,-0.1503,-0.0859,47.8800,12.0400,61.9500,16,9
-2.2424,-0.1113,-0.3977,102.9700,-7.2800,28.0700,12,2
-1.6958,0.1166,-0.6934,92.5400,67.9700,-2.3100,11,6
-0.9004,2.2858,-0.4729,-390.8800,36.6100,-136.9900,3,5
1.2390,-1.7158,0.0137,-115.7800,-15.4000,-31.4300,20,7
-0.8057,-0.4138,0.8584,-150.5000,-66.5000,-10.9900,94,1
-0.5319,0.5158,0.9350,-19.9500,-13.3700,-5.2500,215,6
-0.5144,0.1264,0.9028,-11.9700,0.5600,-1.0500,313,6
-0.5080,0.1298,0.9013,6.3700,12.3200,0.2800,381,3
-0.5104,0.1103,0.9028,10.2900,29.2600,-2.1000,455,4
-0.5339,0.1235,0.8721,13.7900,43.3300,0.4200,496,3
-0.6022,0.1664,0.8081,8.4000,46.0600,-1.8900,519,6
-0.6300,0.1596,0.7759,2.7300,41.7200,-3.9900,514,3
-0.6486,0.1196,0.7720,0.5600,35.9100,-3.5700,553,8
-0.6603,0.1405,0.7627,0.4900,34.9300,-3.9200,599,7
-0.6710,0.1142,0.7530,3.2200,35.1400,-2.1000,645,8
-0.6661,0.1479,0.7740,5.5300,40.2500,-2.1000,683,4
-0.6329,0.1503,0.8218,4.6200,60.2000,-6.7200,730,3
-0.5002,0.1064,0.8208,7.9100,94.4300,-1.6800,751,8
-0.5656,0.2772,0.8789,25.7600,160.6500,-11.7600,748,9
-0.3753,0.2420,0.9472,-2.6600,254.7300,-40.4600,618,8
-1.1951,-0.0244,0.9662,13.5100,363.5100,-16.5900,167,12
-2.2360,0.5407,0.9379,78.8200,344.8200,-41.8600,23,3
-2.0320,0.4787,1.1566,59.3600,155.2600,-89.6000,24,0
-1.3552,0.2586,1.7656,-36.9600,-87.4300,-64.8200,14,0
0.1279,0.1083,0.7364,-10.9900,-145.4600,-63.9100,16,0
-0.2943,0.3909,0.7149,7.9100,-218.0500,-14.0000,18,8
-0.5217,0.1474,0.6281,-11.9000,-285.0400,50.4700,14,12
-0.7369,0.1830,0.6344,45.7800,-286.6500,67.6200,17,8
-1.0390,0.2655,0.7022,48.0200,-275.0300,76.7200,14,5
-1.0121,0.2489,0.8833,21.6300,-239.9600,108.7100,11,7
-1.2376,0.4509,0.9072,6.9300,-199.7800,122.1500,12,10
-1.5074,0.1542,0.5363,-0.7000,-113.4000,114.3100,13,3
-2.1555,-0.0473,0.1196,63.7000,-26.3900,103.7400,16,3
-1.9579,0.0259,-0.6183,72.7300,-11.3400,74.1300,12,7
-1.6084,0.1869,-0.6339,47.8100,48.7900,-12.6700,8,8
-1.3464,0.2796,-0.3777,26.1100,171.9900,-32.6900,8,7
-5.0142,-6.8925,3.2115,-683.2000,-221.1300,-63.7000,7,7
-0.8882,0.9809,0.8423,-298.7600,-63.8400,0.9100,35,8
-0.5851,0.6564,0.9311,50.1900,-2.5200,-1.1200,126,6
-0.5192,0.1693,0.8969,7.4900,-0.6300,0.2100,224,6
-0.5202,0.2357,0.8926,-1.1200,5.7400,-1.2600,352,8
-0.4929,0.0898,0.9272,2.8000,19.1800,0.2800,450,12
-0.5056,0.1161,0.9101,14.0000,37.8000,1.0500,503,9
-0.5529,0.1493,0.8657,15.2600,49.4900,1.4700,520,4
-0.5993,0.1767,0.8145,8.6800,53.8300,-1.2600,522,7
-0.6407,0.1776,0.7637,3.6400,50.7500,-4.9000,546,7
-0.6808,0.1269,0.7340,0.8400,42.9800,-5.3200,577,0
-0.6822,0.1410,0.7374,-0.3500,37.2400,-4.6900,624,9
-0.6861,0.1215,0.7403,1.8900,38.4300,-2.9400,682,8
-0.6827,0.1674,0.7574,3.1500,47.0400,-3.1500,736,4
-0.6534,0.1527,0.8150,2.5200,72.0300,-3.6400,774,5
-0.5617,0.1059,0.8745,5.6000,118.5100,-1.4700,803,8
-0.4338,0.3343,1.0146,13.4400,230.2300,-32.2700,762,0
-0.8984,0.2118,1.0594,-30.0300,357.8400,-52.6400,344,6
-1.7914,0.1723,0.9423,54.6000,401.3800,-50.6100,47,1
-2.2902,0.5885,1.0233,67.2700,263.1300,-91.9800,25,8
-0.4563,0.8945,1.6533,7.2800,-16.6600,-54.4600,22,6
0.1928,0.2606,0.8735,-6.7200,-152.1800,-42.9800,19,6
-0.1742,0.2826,0.7188,13.8600,-215.7400,4.2000,17,0
-0.3265,0.1244,0.6525,1.9600,-266.4900,76.0200,24,5
-0.6764,-0.0200,0.6934,41.3000,-298.2000,85.3300,7,8
-1.0765,0.1205,0.7554,63.2100,-300.8600,62.2300,15,11
-1.0355,0.1366,0.8433,16.7300,-279.5800,63.2100,17,5
-1.0350,0.3074,0.9238,31.5700,-194.2500,74.4800,15,4
-1.6270,-0.0547,0.7291,27.9300,-116.4800,91.9100,11,9
-1.9676,-0.1147,0.1283,33.1800,-33.1800,80.2200,16,8
-2.3204,-0.1362,-0.4778,37.0300,-30.8700,28.1400,16,10
-1.4674,-0.4085,-0.6837,24.6400,75.8800,-61.6000,9,10
-1.4762,0.5714,-0.3113,75.8100,116.4100,12.5300,5,6
-1.9701,-3.0607,2.1189,-799.4000,-48.7200,39.3400,10,11
-0.7505,2.2189,1.1810,117.3900,-63.2800,-9.8700,7,12
-0.6412,-0.4241,0.8740,65.0300,-23.1700,-5.1100,44,6
-0.5031,-0.1020,0.8921,-35.3500,-14.2800,-1.6800,131,33
-0.5192,0.0317,0.8935,-8.4700,-1.4700,0.7700,220,15
-0.5119,0.1191,0.9179,3.7100,7.2800,1.1900,313,3
-0.5080,0.1332,0.9111,15.6100,28.9100,0.6300,370,9
-0.5417,0.1801,0.8667,11.0600,38.0100,-1.3300,408,0
-0.5856,0.1737,0.8262,6.6500,40.3900,-3.7100,432,4
-0.6188,0.1801,0.7886,2.8000,36.9600,-4.9000,464,9
-0.6290,0.1186,0.7784,-3.3600,32.6200,-4.7600,513,7
-0.6398,0.1240,0.7749,-1.1200,31.4300,-2.8000,558,10
-0.6446,0.1298,0.7857,2.2400,32.4800,-0.4200,604,7
-0.6251,0.1293,0.7984,5.6700,42.4200,-0.4900,660,0
-0.6173,0.1518,0.8145,6.3700,61.8100,2.2400,701,0
-0.6032,0.1576,0.8560,7.6300,94.2200,-2.5200,744,6
-0.5236,0.2694,0.9428,21.1400,167.2300,-12.8800,763,4
-0.3958,0.3362,1.0502,4.7600,278.9500,-48.3000,651,8
-1.1990,0.2406,0.9550,-15.6100,386.7500,-53.6900,152,3
-2.1916,0.5783,0.9311,63.4200,366.0300,-59.9200,18,9
-2.0023,0.1425,1.0682,96.6000,148.1200,-67.4800,17,6
-0.9121,0.2674,1.8022,-9.3100,-109.0600,-52.2200,20,6
0.1591,0.2772,0.8111,-11.3400,-178.5700,-40.7400,20,5
-0.3021,0.3021,0.7530,-2.8700,-250.2500,38.2200,12,6
-0.5671,-0.0922,0.6393,13.1600,-280.1400,80.2900,18,3
-0.8838,0.0625,0.7740,41.0200,-293.5800,58.7300,20,12
-0.9433,0.0625,0.8130,39.4800,-273.6300,37.8000,12,3
-0.9809,0.4021,0.9711,46.2000,-208.6000,31.7100,12,6
-1.4367,0.3728,0.9140,5.3900,-145.9500,45.1500,12,7
-1.5758,-0.1010,0.4372,75.9500,-87.9900,105.4900,11,0
-2.0418,-0.0742,-0.0586,127.2600,9.6600,127.4700,14,3
-1.7924,-0.0869,-0.6066,18.3400,-11.9000,28.9800,14,8
-1.2664,0.0395,-0.5246,73.5000,104.1600,-28.0000,7,6
-1.7153,1.3176,-0.6534,-579.5300,12.1100,-146.4400,5,9
-0.8662,-0.7681,0.3997,200.2700,11.6900,-73.2200,20,8
-0.5822,-0.5324,0.7852,65.1700,-4.5500,8.6800,81,6
-0.5549,0.3514,0.8555,-13.2300,-12.5300,-1.4000,144,8
-0.5456,0.0429,0.8989,-37.2400,-14.0000,-2.1000,201,6
-0.5163,0.0874,0.8882,7.5600,5.6000,6.1600,210,9
-0.5529,0.1674,0.8608,5.3900,8.8200,1.8900,230,8
-0.5602,0.1459,0.8550,-10.8500,-0.9100,-4.0600,245,12
-0.5031,0.0888,0.8945,-7.0700,8.6800,-4.6200,317,3
-0.5266,0.1108,0.8794,3.7100,20.5800,-3.2200,381,7
-0.5607,0.1669,0.8496,2.0300,26.5300,-5.3200,472,8
-0.5524,0.1254,0.8740,-7.3500,33.5300,-11.2700,560,6
-0.5705,0.0893,0.8672,-1.4700,47.3900,-11.1300,630,7
-0.5900,0.0927,0.8311,8.1200,60.3400,-7.0700,688,1
-0.6120,0.1566,0.8140,10.5700,72.8000,-9.5900,740,7
-0.6071,0.1332,0.8398,4.9000,93.9400,-15.8200,795,11
-0.5295,0.1601,0.9296,6.5800,149.5900,-11.8300,835,5
-0.4636,0.2201,0.9384,-1.3300,236.2500,-31.9900,772,7
-1.1165,0.1537,1.0311,-20.2300,357.0700,-44.1000,284,8
-2.4102,0.2264,1.2893,101.9200,373.1000,-60.7600,15,5
-1.3337,0.5090,1.2581,43.8200,166.1800,-108.6400,13,3
0.2133,0.5710,1.3932,19.3900,-98.5600,-19.6000,12,3
-0.0259,0.1791,0.9384,23.5200,-182.2800,8.9600,16,8
-0.1352,0.2923,0.7759,26.0400,-265.1600,62.1600,20,8
-0.4392,-0.0966,0.7281,33.3200,-299.9500,76.9300,14,5
-1.0072,0.0503,0.9223,74.2000,-312.4100,61.8100,17,6
-1.1209,-0.0239,1.0268,66.2900,-299.4600,47.7400,9,6
-1.0648,0.2469,1.0560,52.9200,-219.6600,42.6300,15,4
-1.2029,-0.0937,0.8067,46.8300,-107.3800,52.3600,5,0
-2.1018,-0.0307,0.5812,89.9500,-20.0900,80.5700,15,8
-2.1126,-0.1820,-0.3235,68.1100,-63.2800,46.6200,9,0
-1.5406,-0.5144,-0.9082,103.7400,34.6500,-41.7900,12,4
-2.7147,1.6973,-0.1693,217.5600,199.9900,-230.2300,3,8
-3.5692,-2.8792,2.9026,-669.1300,-225.3300,-45.4300,8,3
0.0322,0.3318,1.2800,-145.1100,-41.1600,-7.8400,115,3
-0.6822,0.4953,0.8921,46.4800,6.4400,13.5800,232,6
-0.5802,0.2708,0.8506,-3.8500,-1.6100,-5.1100,311,9
-0.5080,-0.0185,0.9155,6.4400,8.4000,0.6300,351,9
-0.5124,0.1293,0.9008,16.0300,24.7800,4.9000,366,5
-0.5529,0.1835,0.8457,11.7600,35.6300,1.8200,380,1
-0.6032,0.2074,0.8125,-0.9100,34.4400,-4.4800,417,6
-0.5876,0.1479,0.8223,-3.0100,40.3200,-9.5200,488,4
-0.6105,0.0917,0.8052,-1.5400,49.9100,-7.9800,528,5
-0.6520,0.1191,0.7681,8.4000,56.9800,-1.0500,565,7
-0.6754,0.1664,0.7276,9.3800,60.2700,-0.8400,600,3
-0.7052,0.1859,0.7071,9.6600,63.6300,-6.0900,648,7
-0.6934,0.1649,0.7530,3.5700,77.3500,-8.7500,700,3
-0.6471,0.1362,0.8023,3.5700,113.6800,-6.5800,742,6
-0.5031,0.2503,1.0028,16.2400,203.1400,-14.7700,687,4
-0.8106,-0.0244,1.0712,20.5100,354.1300,-2.8000,303,9
-2.3902,0.1054,0.9804,139.8600,393.6100,39.6900,16,12
-2.0413,0.3314,1.3483,184.3800,138.0400,-3.2200,17,10
-0.8203,-0.2445,1.9496,70.1400,-129.5700,-102.4100,14,4
-0.0874,0.1542,1.0038,120.2600,-208.0400,-65.3100,17,8
-0.1815,0.0937,0.7754,52.5700,-277.2000,12.9500,14,6
-0.5939,-0.3523,0.7427,54.9500,-302.8900,41.9300,18,8
-0.9618,-0.2664,0.8408,98.5600,-318.1500,-8.5400,13,3
-1.0185,-0.1020,0.8340,81.3400,-309.3300,-35.1400,17,5
-0.9296,0.0527,0.8579,69.1600,-231.8400,-31.5700,14,0
-1.4713,0.0200,0.7447,68.9500,-157.4300,13.5100,12,8
-1.9964,-0.2479,0.3401,103.0400,-97.9300,82.1800,7,5
-1.9984,-0.0307,-0.2460,92.4700,-23.0300,76.8600,10,3
-1.9896,-0.4890,-0.7920,52.8500,14.0700,7.7700,6,6
-1.5045,0.1913,-0.8076,101.2900,102.7600,-23.5900,3,8
-0.7349,3.8137,-0.0063,-684.4600,-60.2700,-49.4200,3,0
-0.2298,-1.0648,1.2195,396.5500,42.8400,-106.4000,24,5
-0.3548,-1.4952,0.8838,-82.5300,-11.4800,5.2500,120,45
-0.5949,0.3875,0.8164,-43.1900,-3.0100,8.1200,204,35
-0.5470,0.0761,0.8906,-22.9600,-5.1800,-2.4500,270,8
-0.5168,0.0605,0.8945,1.8900,6.8600,1.5400,325,0
-0.5144,0.1254,0.8950,6.5800,15.3300,-0.7000,360,4
-0.5612,0.1122,0.8599,12.1800,22.0500,-2.0300,444,4
-0.5583,0.1318,0.8525,5.6000,25.1300,-4.1300,513,8
-0.5661,0.1498,0.8462,-0.9100,27.9300,-7.9800,560,7
-0.5856,0.0742,0.8359,-1.8200,32.4800,-6.6500,605,3
-0.6076,0.0712,0.8335,3.9200,39.2000,-4.1300,640,3
-0.6320,0.0966,0.8037,6.7900,44.5200,-2.8000,675,4
-0.6486,0.1332,0.8106,11.7600,52.1500,-3.3600,717,5
-0.6388,0.1425,0.8174,7.0700,67.4800,-7.5600,773,9
-0.5856,0.0732,0.8662,3.3600,102.6900,-6.5100,807,6
-0.5026,0.1552,0.9438,12.8800,170.1000,-6.1600,800,4
-0.4699,0.3821,1.0346,-5.1100,291.6900,-42.4200,575,7
-1.8944,0.0747,1.1639,-17.0100,375.4100,-63.7000,93,12
-2.4346,0.7398,1.3376,65.3800,265.7900,-91.1400,24,12
0.0834,0.9716,2.2482,-5.3900,16.8700,-57.3300,19,3
0.2352,0.3006,1.3854,-2.7300,-125.3700,-47.8800,15,8
-0.0264,0.3958,0.9350,27.9300,-258.0900,4.1300,17,9
-0.5358,-0.0493,0.7554,45.2900,-293.7900,67.6200,18,8
-1.0604,0.0664,0.9472,63.7000,-302.4700,75.2500,15,7
-1.0702,0.1557,0.8921,45.5000,-284.9700,60.9000,21,9
-0.9116,0.2094,0.8618,28.5600,-188.7200,61.5300,20,8
-1.2503,0.0664,0.7188,6.6500,-107.8700,71.4700,13,0
-1.6080,0.0781,0.5173,47.3200,-36.4000,86.7300,13,0
-1.8041,-0.0639,0.2606,77.6300,-11.4100,94.3600,16,6
-1.6045,0.1200,-0.1015,68.3900,-25.1300,69.3700,14,7
-1.4298,-0.1122,-0.3518,57.8900,23.5200,8.5400,7,5
-1.2981,-0.1196,-0.2298,-5.0400,73.1500,-74.8300,17,6
-2.6347,3.4145,0.2294,-35.3500,11.2700,-150.7800,6,8
1.3449,-2.5488,0.4939,58.3100,6.3700,-54.6700,27,7
-0.7257,-1.2190,0.7159,-177.5900,-62.3700,-10.1500,287,6
-0.5314,0.2713,0.9101,-23.6600,-33.4600,10.8500,364,8
-0.5339,0.1957,0.9013,-37.3800,-24.2200,-1.6800,409,7
-0.4963,0.0464,0.9345,-20.0900,-4.6900,-2.5900,454,5
-0.5183,0.0522,0.8794,5.6700,8.7500,-0.4900,501,1
-0.5236,0.1186,0.8935,6.8600,17.7100,-2.3100,548,8
-0.5236,0.1401,0.8799,3.5000,26.7400,-3.9900,587,3
-0.5505,0.1191,0.8672,-2.7300,35.7700,-6.4400,645,3
-0.5802,0.1020,0.8496,-4.4100,43.6100,-6.6500,683,6
-0.6076,0.0805,0.8223,0.6300,51.3100,-5.5300,726,6
-0.6393,0.1069,0.7832,10.9200,54.6700,-4.6200,752,3
-0.6651,0.1142,0.7564,7.7700,54.5300,-8.1900,772,3
-0.6881,0.1606,0.7784,4.3400,59.7800,-16.2400,815,5
-0.6505,0.1000,0.8008,0.8400,76.7200,-21.2800,852,12
-0.6344,0.0215,0.8028,0.3500,109.1300,-9.8000,876,5
-0.6149,0.0849,0.8272,8.4000,158.1300,-14.2800,795,1
-1.0185,0.5993,0.9965,-2.9400,261.5200,-56.8400,349,0
-2.0574,0.2050,1.1014,20.1600,211.9600,-80.5700,41,4
-0.2240,0.3831,1.8505,-37.5200,31.1500,-47.4600,18,9
0.2743,0.1566,1.5880,22.6100,-97.4400,-9.2400,15,3
0.0571,0.1318,1.1971,24.4300,-195.0200,17.9900,13,4
-0.2899,0.3035,1.0170,39.0600,-230.1600,27.3000,12,4
-0.7525,0.0864,1.0555,73.9900,-223.4400,23.4500,15,4
-0.7413,0.0932,1.0175,50.9600,-198.1000,32.9000,12,3
-0.8789,0.2362,0.9941,30.5200,-160.8600,33.5300,21,0
-0.8550,0.0869,0.9609,15.0500,-118.3000,29.4700,14,3
-0.9165,0.0078,0.8442,9.1700,-101.7100,35.0000,14,3
-0.8369,-0.0605,0.6364,67.2000,-31.4300,54.0400,14,9
-1.3244,0.0142,0.5353,89.2500,21.3500,67.6900,15,8
-1.3962,-0.0420,0.2089,-1.0500,-35.3500,42.9100,16,3
-1.3879,-0.2513,-0.0371,12.3200,41.5100,-22.4000,15,1
-1.3542,0.0761,-0.0991,67.4100,59.9900,-6.3000,13,4
-1.1610,0.4026,-0.3645,81.0600,114.5900,22.0500,14,4
-1.8925,1.1019,0.6529,-698.8100,5.3900,-104.6500,10,3
-0.9316,1.4864,1.5157,218.8200,-67.7600,-64.4000,168,7
-0.4558,-1.1741,0.9448,137.9000,-9.8700,-0.7000,432,3
-0.5510,0.1240,0.8789,14.6300,8.4700,0.0000,549,4
-0.4934,0.0508,0.9389,8.1900,19.3200,-1.4700,622,8
-0.4997,0.1410,0.9467,15.6100,47.2500,-4.0600,673,9
-0.5641,0.1357,0.8564,15.2600,64.5400,-3.1500,716,8
-0.6593,0.1840,0.7520,9.3100,60.6200,-5.3200,719,5
-0.6930,0.1830,0.7096,-2.5900,50.8900,-13.5100,733,0
-0.7183,0.0844,0.7076,-7.9800,40.7400,-14.2100,766,7
-0.7237,0.0712,0.7008,-1.0500,34.7900,-7.7000,819,7
-0.7237,0.1000,0.7076,-4.2000,31.3600,-6.5800,849,0
-0.6930,0.0883,0.7584,-1.8900,42.1400,-7.2800,894,3
-0.6188,0.1249,0.8652,-1.8900,79.1700,-10.1500,928,6
-0.5378,0.1171,0.9374,-2.0300,150.7800,-14.6300,932,3
-0.3499,0.2962,1.0336,3.0100,283.6400,-32.3400,740,13
-1.5718,-0.1508,0.9121,-16.9400,378.2100,-30.7300,163,9
-2.7460,0.5553,1.4840,52.1500,285.7400,-66.0800,22,7
-0.3148,0.8511,1.7265,-8.8900,32.6900,-50.9600,15,9
0.2767,0.6583,1.3318,-42.7000,-100.6600,-34.9300,24,4
-0.0712,0.3245,0.8789,-45.8500,-215.7400,-10.0800,20,8
-0.3777,0.3133,0.7291,-20.7200,-252.7000,28.9800,13,9
-0.6861,0.2660,0.7515,4.5500,-287.6300,50.4000,11,5
-1.4630,0.2289,0.9902,19.6700,-285.1100,74.5500,9,7
-1.0712,0.2865,0.8686,-0.9100,-245.2800,83.5800,15,7
-1.0951,0.6085,0.8969,-12.7400,-190.1900,89.4600,12,6
-1.7675,0.4895,0.9453,-11.6200,-148.1900,96.8800,14,7
-1.1082,-0.1508,0.4016,56.7000,-112.4900,122.0100,16,4
-1.5245,-0.3060,0.1581,101.8500,25.6200,102.9700,14,8
-1.8534,-0.0015,-0.3543,123.0600,31.6400,52.7100,12,10
-1.7822,0.4480,-0.7554,85.4700,72.3100,27.0900,10,10
-1.5406,-0.0127,-0.6754,45.7100,186.8300,-60.9000,7,8
2.9285,-2.2482,-1.2102,126.0700,60.9700,-94.3600,53,4
0.1000,-1.1248,0.8691,-144.4100,-30.5900,9.8000,353,6
-0.6647,0.6227,0.8857,-11.2700,-1.4000,9.5200,485,0
-0.5475,0.2079,0.8784,-30.1000,-3.9900,-4.4800,544,4
-0.5153,0.0752,0.9091,-10.0100,7.9800,-2.0300,611,10
-0.4821,0.0625,0.9496,2.5900,29.0500,0.0700,670,9
-0.5334,0.0991,0.8818,15.9600,47.6000,2.1700,680,5
-0.6159,0.1630,0.7974,8.8200,45.2200,-2.0300,659,8
-0.6393,0.1796,0.7691,-2.8700,37.1000,-11.4100,680,2
-0.6451,0.0781,0.7686,-10.2900,30.3100,-14.1400,726,8
-0.6544,0.0332,0.7754,-3.1500,31.5000,-8.8900,769,5
-0.6495,0.0981,0.7793,3.4300,34.2300,-5.6700,803,0
-0.6632,0.1449,0.7901,2.8700,41.0200,-9.3800,860,10
-0.6139,0.0815,0.8594,-2.6600,62.5100,-14.4200,916,8
-0.5744,0.0478,0.8916,0.0700,107.4500,-11.4100,972,1
-0.5002,0.2684,1.0009,4.1300,185.5000,-22.1200,941,5
-0.5348,0.3753,1.0185,-25.2700,305.6200,-70.6300,672,1
-1.4425,-0.2489,0.8789,-35.4900,357.4900,-66.3600,143,3
-2.5122,0.3001,1.2180,12.5300,293.5800,-73.8500,23,3
-0.8096,0.6700,1.6202,-23.7300,40.6000,-46.8300,21,12
0.5017,0.5573,1.2317,-46.6900,-136.0800,-13.7200,20,7
-0.1932,0.4651,0.9482,-30.8000,-233.9400,-1.3300,20,3
-0.1781,0.2991,0.6339,-43.1900,-266.8400,41.8600,19,12
-0.7388,0.3465,0.7413,10.5000,-281.2600,78.2600,14,7
-0.9584,0.3021,0.8067,2.8700,-284.3400,89.3200,15,7
-0.9975,0.5012,0.8350,-8.8900,-262.3600,102.8300,10,7
-1.0043,0.5812,0.9287,-13.8600,-182.6300,121.8000,11,8
-1.4991,0.3187,0.8159,-29.9600,-105.4900,118.2300,14,9
-2.0867,-0.0903,0.5212,66.5700,-82.7400,132.4400,12,5
-1.7017,-0.0917,-0.2718,64.5400,-28.7000,93.8000,13,6
-1.9593,-0.2577,-0.6129,108.8500,34.1600,-0.4200,7,6
-1.6436,-0.0185,-0.6281,93.9400,102.4100,-23.8000,7,10
-2.3941,4.5730,1.3366,191.7300,75.7400,-172.4800,11,7
2.1462,-2.8109,-0.4758,152.1800,0.0000,-68.8100,13,3
-0.2274,-0.4494,1.0990,-182.0700,-46.0600,-5.3200,87,6
-0.5817,0.5958,0.8969,-7.0700,0.0000,5.8100,169,7
-0.5378,0.1972,0.8818,-12.0400,-3.3600,-2.7300,264,5
-0.5109,0.0976,0.9126,2.7300,11.6900,-1.2600,342,0
-0.5114,0.1039,0.9096,9.8700,27.4400,-2.3100,421,3
-0.5470,0.1039,0.8667,6.6500,36.8900,-1.7500,480,2
-0.5866,0.1537,0.8316,1.8200,38.4300,-5.7400,518,3
-0.6100,0.1313,0.8135,-2.5900,37.8000,-7.5600,558,7
-0.6266,0.1049,0.7979,-3.7100,39.8300,-7.2800,612,7
-0.6476,0.0971,0.7906,1.4000,40.8800,-6.8600,655,4
-0.6490,0.0883,0.7847,2.8000,45.7800,-6.3000,709,3
-0.6656,0.1166,0.7706,5.8100,53.4800,-5.3900,759,0
-0.6261,0.1298,0.8345,4.9700,72.9400,-9.1000,812,8
-0.5417,0.1078,0.9345,-0.6300,125.3000,-4.8300,841,3
-0.4231,0.4138,1.0507,11.4100,229.1100,-43.9600,827,5
-0.9145,0.3299,1.0853,-58.7300,365.4700,-87.7100,394,9
-1.6192,0.2186,0.9365,26.7400,399.7700,-63.0000,56,6
-2.4644,0.4626,0.9843,25.6900,223.2300,-85.2600,20,8
-0.4241,0.9823,1.9608,-124.2500,-62.0200,-38.7100,25,12
0.1923,0.2694,0.9492,-36.4700,-165.7600,-28.8400,7,7
-0.1186,0.3884,0.7408,-26.8800,-230.8600,-4.8300,9,3
-0.3235,0.2977,0.5895,-38.3600,-281.0500,48.9300,15,9
-0.9560,0.3592,0.7745,19.3200,-280.5600,84.8400,17,8
-0.8706,0.4358,0.7213,-15.1900,-273.7000,94.7800,16,3
-0.8569,0.5724,0.8520,-35.2100,-206.6400,115.4300,16,8
-1.1268,0.3421,0.2957,48.9300,-124.3200,168.2100,16,6
-1.8329,0.6466,0.5266,-131.5300,-92.2600,124.1100,12,6
-1.2854,-0.1386,0.0615,114.5200,-69.5800,148.8900,17,9
-2.1448,0.0576,-0.1625,76.1600,23.2400,75.1800,7,6
-1.6724,-0.0342,-0.5549,114.8000,12.6000,27.7900,10,3
-3.0549,1.5889,-0.7623,-104.2300,196.7000,-117.3900,9,7
1.6568,-1.5509,1.3835,-224.8400,-43.7500,-70.2100,10,8
-0.4104,-0.5954,1.0814,-52.3600,-20.0900,-6.2300,88,200
-0.5563,0.2899,0.9326,32.4800,5.9500,7.4200,193,115
-0.5368,0.1181,0.9130,-11.4800,3.3600,-3.0100,304,35
-0.5051,0.0834,0.9213,4.9700,20.1600,-1.3300,421,9
-0.4812,0.0717,0.9360,12.4600,38.0800,-0.4200,487,6
-0.5534,0.1230,0.8633,11.3400,50.2600,0.0700,542,7
-0.5968,0.1371,0.8135,6.0200,50.6100,-3.4300,577,7
-0.6242,0.1283,0.7813,4.1300,48.9300,-6.0900,603,7
-0.6598,0.1030,0.7603,1.1900,46.5500,-6.3000,659,10
-0.6749,0.1118,0.7496,2.1000,45.0100,-4.2700,719,12
-0.6754,0.1166,0.7564,3.0100,48.5800,-4.8300,766,14
-0.6720,0.1059,0.7647,2.8700,59.9200,-3.6400,807,9
-0.6232,0.1259,0.8398,3.6400,91.0000,-3.1500,842,1
-0.5202,0.0786,0.9052,17.2200,150.5000,1.3300,845,4
-0.4119,0.3689,1.0253,13.1600,263.4100,-37.7300,750,4
-1.1165,-0.1025,1.0253,-26.8800,393.4000,-31.5000,248,8
-2.2731,0.3797,0.9599,76.3700,407.9600,-27.9300,24,10
-2.3990,0.2611,1.3435,108.7100,162.8900,-53.1300,24,6
-1.1253,0.1737,2.0340,-45.2200,-148.6100,-59.2900,13,12
0.0927,0.0688,0.8174,12.6000,-207.6900,-60.4800,19,0
-0.2333,0.3558,0.6754,-9.1000,-272.5100,5.5300,13,7
-0.4372,0.0112,0.6237,-8.2600,-293.6500,67.7600,17,7
-0.8647,0.3704,0.7803,18.4100,-311.1500,79.9400,11,6
-1.0834,0.3411,0.8506,18.4800,-292.1800,77.0700,15,8
-0.8111,0.5651,0.8257,-6.8600,-213.6400,96.1100,18,5
-1.4308,0.3831,0.7969,-22.8200,-75.0400,114.7300,17,8
-3.1286,0.0747,0.4563,70.9800,-121.3100,176.2600,16,7
-1.2185,0.0669,-0.8823,-23.2400,-2.8000,102.9000,4,7
-2.3068,-0.0107,-0.9140,109.0600,60.3400,-10.4300,9,5
-4.5330,2.3468,-0.2894,150.0800,50.1900,-222.1100,6,6
1.6612,-3.0890,1.0199,-289.4500,-50.0500,-35.1400,16,10
-0.6573,0.1044,1.0048,-123.5500,-48.1600,-6.1600,96,22
-0.5407,0.3523,0.8569,3.0800,4.2700,6.3700,201,3
-0.4914,0.3733,0.9116,1.7500,6.5800,-1.4700,306,3
-0.6271,0.1420,0.7837,2.1000,45.5000,-7.4900,561,0
-0.3631,0.3948,1.0892,9.9400,261.5200,-43.0500,759,8
-0.3245,0.2757,0.5222,-40.2500,-292.1100,55.2300,15,6
-2.5776,-0.0683,0.1435,115.3600,-18.3400,171.9200,18,6
-2.3356,-0.2377,-1.0707,32.1300,0.3500,93.6600,4,5
-1.8739,-0.3260,-1.1522,121.5900,107.3100,-25.9700,10,7
0.0366,0.1401,1.3469,-682.7100,-3.0100,-75.8800,4,8
-2.9475,-0.4455,1.2839,320.3200,-96.5300,-119.3500,21,2
-0.3372,-0.8838,0.8862,96.8800,3.5000,6.4400,99,88
-0.5168,0.0151,0.8418,-22.3300,-2.5900,0.5600,177,63
-0.4982,-0.1220,0.9018,-7.9800,5.1800,1.0500,256,10
-0.4909,0.1191,0.9199,4.7600,19.2500,0.5600,320,8
-0.5217,0.1283,0.8916,7.3500,34.4400,-1.6800,376,9
-0.5617,0.1654,0.8560,5.9500,38.0800,-5.5300,466,6
-0.5836,0.1327,0.8359,3.3600,44.0300,-6.7200,498,6
-0.6178,0.1171,0.7974,1.8900,46.0600,-5.9500,542,8
-0.6534,0.1230,0.7715,2.0300,43.3300,-4.6900,573,7
-0.6476,0.1059,0.7749,4.7600,44.8700,-3.8500,628,5
-0.6583,0.1396,0.7828,3.7100,52.9900,-4.9700,699,6
-0.5802,0.1508,0.8867,4.7600,85.0500,-7.0000,762,9
-0.5041,0.1415,0.9589,10.3600,147.9800,0.4200,801,8
-0.4050,0.4216,1.0263,15.2600,264.0400,-40.1800,719,7
-1.3318,0.1059,1.0297,-42.2100,383.0400,-63.5600,211,3
-2.3829,0.4616,1.0594,31.5000,349.1600,-78.3300,27,1
-1.5396,0.2821,1.1605,48.3700,126.3500,-81.5500,19,3
0.3396,0.6022,1.2356,-20.5100,-166.8800,-23.2400,15,3
0.0547,0.3318,0.7950,1.4000,-210.7700,-4.2000,16,10
-0.3284,0.3304,0.7310,-14.3500,-272.4400,52.7100,10,6
-0.6183,0.0986,0.7198,27.0900,-297.8500,73.1500,13,1
-1.0175,0.1806,0.8267,51.5200,-308.9800,67.1300,18,6
-0.8584,0.3572,0.9116,17.1500,-261.0300,76.7200,9,7
-1.2083,0.3782,0.9614,20.6500,-158.9700,91.9100,16,0
-2.2926,0.3357,0.5485,103.9500,-1.6800,75.8800,12,8
-2.7299,-0.6627,-0.6159,141.8200,-12.1100,47.2500,9,6
-2.7743,0.5827,-1.0594,47.3900,157.0100,-137.1300,10,5
0.6290,-0.6398,0.9165,-386.2600,-137.4800,-45.7100,9,3
-0.3060,-0.0839,1.0970,-15.7500,-3.6400,5.2500,38,3
-0.5402,0.5763,0.8530,71.3300,10.3600,7.0700,96,1
-0.5641,0.2103,0.8433,-26.4600,-18.2000,-12.8800,192,8
-0.4685,-0.0556,0.9150,-3.3600,-0.9800,-2.7300,297,5
-0.5007,0.1576,0.9150,8.1900,12.6000,0.2100,359,4
-0.5061,0.1640,0.9028,0.2800,25.5500,-4.9700,464,2
-0.5212,0.1166,0.9072,2.3800,39.6200,-9.1700,563,1
-0.5588,0.1147,0.8672,5.8100,53.7600,-7.8400,616,7
-0.6017,0.1405,0.8091,6.0200,60.2000,-9.3800,672,4
-0.6432,0.1420,0.7779,0.0700,61.0400,-12.4600,719,7
-0.6812,0.1220,0.7442,4.7600,62.0200,-13.5800,780,3
-0.6744,0.1049,0.7652,2.8700,69.8600,-11.9000,834,9
-0.6417,0.1820,0.8374,0.1400,102.8300,-16.1000,882,2
-0.5212,0.1918,0.9731,-0.9100,175.7000,-28.5600,872,6
-0.6344,0.4319,1.1629,-33.8800,338.3100,-85.1900,504,6
-1.5548,0.2743,1.0507,14.7700,416.2200,-92.9600,62,5
-2.0340,0.2948,1.1580,-11.9000,167.4400,-118.2300,15,10
-0.4529,0.4568,1.5313,-48.5100,-140.9800,21.2100,14,3
0.0337,0.0356,0.7671,-8.4700,-189.6300,42.7700,16,7
-0.2274,0.3484,0.6373,-13.4400,-265.3700,69.5100,17,12
-0.7681,0.0029,0.7242,49.2800,-292.2500,77.2100,18,5
-1.0565,0.1230,0.7754,33.1100,-291.8300,67.1300,15,6
-0.9570,0.3655,0.8247,41.4400,-254.6600,70.4900,17,7
-1.1229,0.5056,0.8237,10.7100,-162.0500,80.9200,15,9
-1.6836,0.0200,0.5139,59.9200,-36.6100,119.9800,19,5
-2.1716,-0.0332,-0.1649,38.5700,-66.2900,99.2600,11,3
-1.9120,-0.7335,-0.9350,79.3100,44.8700,8.7500,17,4
-3.1037,2.7289,0.5924,255.5000,229.5300,-138.6700,13,5
-0.9072,-3.0041,1.2986,-473.4100,-97.6500,-93.8000,7,4
-0.7998,0.1235,0.9184,-79.3100,-20.2300,-11.7600,25,40
-0.5836,0.5836,0.9355,-1.4000,8.8200,-0.4200,119,19
-0.5529,0.1557,0.8969,-19.9500,14.5600,-1.4700,248,7
-0.5319,0.1737,0.8965,5.8800,27.3700,-2.1700,371,2
-0.5461,0.1391,0.8852,12.1800,42.9100,-4.2000,456,8
-0.6354,0.1279,0.7891,12.6700,47.4600,-3.9900,505,0
-0.6705,0.1508,0.7496,8.5400,37.9400,-3.4300,527,9
-0.6866,0.1459,0.7325,-8.8200,24.8500,-3.9900,529,3
-0.6978,0.1454,0.7188,-4.3400,15.0500,-1.9600,560,0
-0.6744,0.1347,0.7574,-1.7500,12.7400,-2.1000,614,14
-0.6354,0.1464,0.8130,-1.1900,24.0100,-3.4300,698,9
-0.5392,0.1376,0.9418,1.7500,66.8500,-8.1200,772,4
-0.4865,0.1000,0.9804,12.4600,143.8500,-3.9900,804,7
-0.3665,0.3104,1.0067,14.2100,267.2600,-35.9800,754,1
-1.1258,0.1781,0.9960,-5.3900,406.9800,-42.5600,209,8
-2.3536,0.4470,1.0824,59.0800,384.5800,-55.8600,21,9
-1.4957,0.2601,1.1497,107.2400,125.1600,-67.7600,23,11
0.5627,0.4324,1.0970,-39.6900,-193.5500,-27.3700,14,6
0.0000,0.3875,0.7969,-6.7900,-240.7300,-4.0600,13,12
-0.3806,0.1747,0.6730,0.3500,-300.2300,66.4300,16,8
-0.6749,0.0429,0.7208,44.8700,-294.7700,70.2800,19,3
-1.0619,0.2040,0.8438,65.6600,-297.9200,49.4200,17,9
-0.9296,0.1601,0.9248,40.0400,-249.5500,58.8700,19,3
-1.1009,0.1806,0.8140,8.8900,-151.7600,73.5700,9,2
-2.1174,-0.1742,0.2523,90.0200,-44.0300,103.3200,15,0
-2.4449,-0.1337,-0.8164,80.7100,-8.4000,62.7200,7,4
-2.1257,0.9916,-0.7300,28.3500,105.7000,-157.5000,10,3
-2.2541,-1.0643,3.7888,-793.3100,-165.9000,-54.3900,9,7
0.1376,1.2190,1.4269,96.2500,-27.0900,-1.8900,13,11
-0.4792,0.2035,0.8838,127.2600,21.8400,10.9900,38,11
-0.5197,0.0449,0.8755,-12.1100,-3.2900,-7.0700,106,6
-0.4982,-0.0708,0.9023,-2.4500,10.6400,0.2800,179,7
-0.5173,0.1454,0.8950,16.1700,25.9700,0.6300,223,5
-0.5514,0.1376,0.8672,11.9700,38.2200,-1.6800,275,0
-0.5919,0.1937,0.8374,8.4000,43.1900,-5.4600,312,4
-0.6320,0.1479,0.7798,2.4500,42.7000,-8.6100,361,0
-0.6490,0.1103,0.7691,1.1900,40.7400,-6.7900,403,11
-0.6808,0.1313,0.7320,2.7300,36.8900,-4.1300,496,10
-0.6583,0.1430,0.7671,3.9200,40.4600,-2.4500,555,7
-0.6139,0.1322,0.8345,3.8500,63.0000,-3.0100,641,6
-0.5724,0.1030,0.9052,8.8900,118.5100,3.9200,699,1
-0.3904,0.3499,1.0243,37.1000,219.8000,-6.0200,677,4
-0.6324,0.0083,0.9921,-14.9800,381.7100,-13.6500,347,4
-1.8002,0.2274,0.8467,82.8100,433.3700,-15.8900,21,8
-2.3780,0.4451,1.3762,90.5800,200.6200,-69.7900,17,13
-1.1048,0.4890,1.8934,-55.4400,-164.5700,-85.6100,16,6
0.0161,0.2338,0.7788,10.2200,-209.1600,-81.7600,14,9
-0.4226,0.3572,0.6778,-5.6000,-293.9300,-11.1300,14,7
-0.3133,0.2967,0.4812,2.5200,-311.8500,47.1800,15,3
-1.0180,0.3484,0.7696,56.8400,-311.3600,54.1800,16,4
-0.9409,0.4338,0.7793,40.4600,-276.2900,72.9400,11,9
-1.0565,0.6354,0.8228,-6.0200,-165.9700,116.9000,15,5
-1.9052,0.0571,0.5461,44.5900,-35.9100,155.1900,14,4
-2.3131,0.2381,-0.4314,88.7600,13.9300,156.9400,8,0
-2.2902,-0.6515,-1.1034,34.1600,22.2600,22.0500,4,6
-1.8773,2.1877,-0.6822,-175.9100,-13.0200,-217.0700,8,9
2.1145,-3.7376,0.3567,-261.8000,-64.5400,-53.3400,16,2
-0.5993,-0.4260,0.9394,-87.8500,-32.6900,4.9700,54,32
-0.5797,0.3919,0.8740,-31.3600,-6.7900,-2.7300,114,34
-0.4895,0.0063,0.9272,-14.9800,4.0600,0.0700,208,0
-0.4968,0.0742,0.9096,9.8700,18.9000,2.5900,292,9
-0.5246,0.1322,0.8901,12.4600,34.7200,-1.1900,358,5
-0.5544,0.1337,0.8701,0.8400,41.0200,-6.2300,433,5
-0.6002,0.0913,0.8242,16.1700,51.3800,-6.2300,493,3
-0.6471,0.1093,0.7701,7.4900,49.6300,-5.3900,536,8
-0.6666,0.1035,0.7525,4.0600,45.3600,-5.2500,576,5
-0.6837,0.0903,0.7418,8.3300,45.5700,-0.7000,609,8
-0.6427,0.1630,0.8111,5.6000,56.9100,-0.8400,707,4
-0.5671,0.1210,0.8950,1.0500,106.4000,-0.7700,771,1
-0.4294,0.1620,0.9765,27.4400,202.3000,-0.7000,772,5
-0.4153,0.4138,1.2259,11.9000,365.1900,-41.0900,465,8
-1.5967,0.1181,0.9340,55.2300,441.0700,-31.9900,47,16
-2.6533,0.5568,1.3576,71.8200,251.7200,-88.2700,20,6
-1.2771,0.6368,2.1335,-36.1200,-139.0200,-62.0200,16,7
0.1723,0.1752,0.8438,-8.6100,-203.3500,-70.5600,16,3
-0.2250,0.4353,0.6583,-5.6700,-281.7500,-1.6800,17,4
-0.5383,0.1566,0.6110,1.2600,-295.4700,74.2000,14,5
-0.9326,0.2704,0.7666,31.2900,-300.0200,83.3700,13,3
-0.9965,0.5412,0.8652,28.1400,-278.0400,85.4000,15,0
-1.2137,0.6007,0.9448,-4.9000,-184.7300,99.4700,11,16
-2.1321,0.0093,0.4890,67.6900,-89.8100,126.4900,12,1
-2.3751,0.0205,-0.4211,129.6400,-7.9800,157.2200,12,12
-2.0423,-0.0605,-1.1985,143.6400,54.8100,33.8800,5,3
-2.0364,2.2931,-0.0215,-528.5000,-51.6600,-158.6900,6,1
0.9511,-1.8334,-0.5022,152.2500,-7.3500,-97.1600,16,16
-0.4089,-0.9296,0.8633,48.8600,8.6800,12.6700,83,128
-0.5553,0.0527,0.8389,-2.5900,0.1400,-3.9200,215,50
-0.4943,-0.0576,0.9145,-8.5400,4.7600,-4.7600,391,3
-0.4704,0.0224,0.9521,7.6300,26.4600,-2.5900,485,5
-0.5119,0.1215,0.9057,16.5200,51.7300,-2.4500,554,7
-0.5793,0.1396,0.8379,7.4900,59.2900,-6.0900,591,14
-0.6451,0.1386,0.7632,1.4000,56.9800,-8.3300,622,8
-0.6612,0.1064,0.7491,0.5600,51.4500,-11.0600,673,8
-0.6769,0.0908,0.7496,1.6800,52.1500,-10.1500,750,9
-0.6930,0.0625,0.7344,2.1000,56.1400,-6.0900,810,14
-0.6622,0.1142,0.7950,4.3400,74.4100,-5.1800,855,8
-0.6193,0.1132,0.8628,-4.1300,125.3700,-10.7100,904,8
-0.4260,0.3787,1.0668,13.1600,226.4500,-47.6700,886,11
-1.1034,0.4807,1.0238,-69.1600,376.3900,-109.0600,373,0
-1.8998,0.3396,1.0028,11.4800,413.3500,-114.5200,46,9
-2.2629,0.2474,1.2815,41.6500,190.4000,-119.4900,21,9
-0.2601,0.8472,1.4206,-45.6400,-171.7800,18.2700,20,6
-0.0298,0.0776,0.7984,-14.6300,-199.2900,56.2100,17,5
-0.1893,0.3675,0.6764,-8.9600,-266.0700,78.6100,16,8
-0.4792,-0.0654,0.5983,7.4200,-303.9400,91.3500,14,4
-1.0590,0.2338,0.7925,56.7700,-304.3600,92.2600,18,5
-0.9648,0.2450,0.8799,14.0000,-296.8700,94.5700,13,0
-0.9833,0.4607,0.9736,19.8100,-228.4100,83.0900,14,6
-1.5460,-0.0654,0.6861,8.0500,-103.3900,80.0800,12,9
-2.7186,-0.1449,-0.0234,158.5500,-19.3900,137.1300,11,1
-2.2180,-0.3670,-1.1239,30.8700,17.9200,51.1700,13,5
-1.8734,2.0320,-1.0043,-324.5200,49.0000,-231.9800,12,8
1.1839,-2.9212,0.0795,-40.9500,-41.8600,-39.0600,17,5
-0.4036,-0.4285,0.8716,-40.1100,-16.9400,-6.5100,66,22
-0.5734,0.2772,0.8886,-22.4000,-8.3300,-6.2300,191,24
-0.4914,0.0156,0.9243,-24.8500,0.0000,-3.8500,341,9
-0.5139,0.1015,0.9194,8.9600,21.2800,0.6300,448,4
-0.5114,0.1137,0.9077,11.4100,37.8700,-3.0800,527,5
-0.5671,0.1015,0.8525,8.6800,48.0200,-5.3900,584,5
-0.6178,0.1235,0.7935,4.6900,49.9100,-6.0900,623,16
-0.6500,0.1274,0.7623,1.4000,45.2200,-9.3800,650,7
-0.6690,0.1083,0.7603,-0.4900,43.0500,-8.6800,704,8
-0.6769,0.0961,0.7540,2.4500,44.2400,-4.9000,756,12
-0.6388,0.1157,0.8203,3.8500,59.9200,-7.0000,826,8
-0.5973,0.1074,0.8579,2.2400,103.3200,-7.9800,877,2
-0.4992,0.2977,0.9941,9.0300,184.4500,-27.0900,883,3
-0.5456,0.3650,1.1107,-13.4400,357.0000,-85.4700,603,6
-1.4323,-0.0425,0.9989,18.6200,423.9900,-91.0000,107,4
-2.3468,0.5632,1.1278,29.4700,287.7700,-136.3600,11,7
-1.6612,0.9984,1.7705,-35.9800,-80.7800,-23.5200,22,8
0.2381,0.1249,0.7501,-25.6200,-204.1200,33.8100,12,5
-0.3440,0.3494,0.7823,5.3900,-275.1000,68.9500,14,9
-0.4407,-0.1606,0.5578,27.9300,-309.6800,92.4000,15,1
-1.0995,0.1640,0.8120,70.0000,-312.7600,86.3100,15,2
-0.9160,0.1996,0.8316,37.6600,-278.4600,84.1400,16,4
-1.1517,0.3094,0.9882,33.3900,-191.0300,88.3400,13,0
-1.3752,0.1132,0.5080,44.7300,-48.9300,99.5400,13,3
-3.1730,0.0146,-0.2801,128.5200,-41.4400,122.3600,9,2
-2.1394,-1.1136,-1.4059,58.2400,72.2400,9.4500,14,6
-2.0110,3.0881,-0.5168,-436.8000,-57.8900,-131.1100,5,8
1.2942,-1.3069,0.0795,238.9800,64.6800,-58.1000,14,3
-0.2757,-0.9257,0.8721,-66.8500,-26.6000,-5.9500,55,7
-0.5666,0.0054,0.8804,-48.3700,-13.3700,-4.4100,171,13
-0.4904,-0.0288,0.9228,-20.4400,3.9900,-1.7500,303,8
-0.4943,0.0917,0.9248,13.4400,26.3900,-0.2800,409,8
-0.5231,0.1059,0.9116,7.1400,45.3600,-4.0600,501,3
-0.5880,0.0927,0.8350,4.3400,57.6800,-5.1100,571,6
-0.6427,0.1074,0.7662,4.1300,57.1200,-4.4800,591,3
-0.6788,0.1401,0.7413,4.6200,43.1200,-6.5100,610,8
-0.7091,0.0903,0.7169,5.3200,35.3500,-3.3600,640,6
-0.6876,0.1254,0.7505,4.1300,35.2800,-2.5200,704,7
-0.6554,0.1200,0.7998,1.1900,52.7800,-4.2000,763,5
-0.5641,0.1357,0.9223,2.8000,108.2900,-1.4000,820,0
-0.4060,0.2879,1.0663,15.6100,212.0300,-25.6200,825,0
-0.7954,0.3016,1.1039,-31.9200,389.8300,-75.3900,417,8
-1.7788,0.3367,0.9882,55.1600,441.9800,-67.9700,44,6
-2.6498,0.2328,1.4538,77.5600,221.7600,-91.5600,21,11
-1.3801,0.1371,2.0130,-26.0400,-155.4000,-19.2500,15,1
0.2157,0.2455,0.7642,27.0900,-202.0200,1.1200,20,7
-0.3772,0.1791,0.7691,10.3600,-278.4600,44.6600,16,8
-0.5314,-0.0112,0.6559,76.3000,-297.7800,71.7500,15,0
-1.0209,-0.0068,0.8135,81.6900,-308.8400,61.8100,13,7
-0.8818,0.1235,0.9150,41.1600,-273.2800,59.5000,11,0
-1.4225,0.2957,0.9794,39.0600,-185.5000,86.8000,13,1
-2.0677,-0.1830,0.3636,63.6300,-26.7400,112.5600,16,10
-2.7640,-0.1337,-0.6969,79.3800,-50.2600,95.0600,16,8
-1.9378,-0.3387,-1.1819,60.7600,59.2200,-35.8400,12,8
-2.2941,2.3658,0.5900,-423.0800,19.1100,-120.2600,3,0
-3.3452,-0.3514,1.5831,296.3800,-58.3800,-110.1100,19,8
-0.4041,0.0293,0.9697,105.0000,16.7300,2.1000,202,11
-0.6017,0.2279,0.8560,-1.1900,0.9800,-3.4300,343,7
-0.5002,0.0107,0.9067,-2.5200,8.6100,-0.9800,438,8
-0.5183,0.1200,0.9096,12.3900,23.3800,0.9800,517,0
-0.5134,0.1064,0.9145,11.9700,40.1100,-0.4200,566,5
-0.5758,0.1293,0.8506,11.6200,50.8200,-3.3600,603,4
-0.6227,0.1132,0.7998,8.5400,55.2300,-7.2100,607,8
-0.6705,0.1088,0.7676,1.5400,51.2400,-9.9400,653,6
-0.6710,0.1171,0.7471,2.3100,48.3700,-10.5700,703,8
-0.6847,0.1069,0.7637,2.1000,56.4200,-10.7800,792,8
-0.6578,0.0800,0.7910,0.7700,75.4600,-6.0900,837,4
-0.6261,0.1279,0.8472,-3.0800,122.3600,-3.2900,870,6
-0.4119,0.2952,1.0604,9.9400,229.3200,-31.0100,819,8
-1.3288,0.3431,1.1946,-22.8900,394.1700,-71.5400,312,10
-2.1233,0.5602,1.1229,36.4000,446.7400,-91.4900,31,4
-2.2053,0.3387,1.3625,31.3600,197.1200,-115.7100,19,9
-0.0761,0.6744,1.4172,-25.5500,-209.4400,1.1200,20,7
0.0185,0.0795,0.7466,29.8200,-208.6700,17.9900,18,8
-0.3299,0.3289,0.6456,3.0100,-296.8700,64.4700,20,7
-0.6827,-0.1581,0.6417,70.4900,-314.7200,89.8800,14,5
-1.1039,0.0703,0.7735,75.5300,-313.8100,69.4400,13,7
-0.8750,0.1186,0.9008,31.7100,-273.9800,73.2200,16,8
-1.6187,0.5466,1.1283,14.2100,-196.2100,75.3900,17,5
-1.6455,-0.3723,0.3411,64.9600,-22.3300,80.2900,20,0
-2.9724,0.1620,-0.6939,103.5300,-45.5700,103.5300,12,14
-1.9339,-0.8423,-1.3288,46.5500,75.1100,-38.3600,11,11
-2.2306,5.0171,-0.2743,-286.3700,-31.7100,-73.4300,5,6
-0.7720,-1.3088,1.2176,400.6100,72.5900,-112.2800,15,3
-0.4612,-1.1185,0.8906,-9.8000,-10.5000,0.6300,67,87
-0.5754,0.0615,0.8301,-12.3200,-3.5700,-2.1700,156,40
-0.5085,0.0039,0.8974,-14.6300,3.8500,-1.6800,238,8
-0.4978,0.0766,0.9170,6.5100,23.1000,0.6300,323,3
-0.5231,0.1454,0.8843,14.0700,41.3000,-0.7700,370,3
-0.5812,0.1469,0.8276,5.3900,45.2200,-5.6700,416,7
-0.6110,0.1308,0.8081,3.3600,50.0500,-7.0700,446,10
-0.6510,0.1152,0.7691,5.0400,49.0000,-6.8600,486,6
-0.6730,0.0986,0.7491,6.2300,51.8000,-5.5300,563,9
-0.6808,0.1235,0.7408,6.3700,57.0500,-1.6100,622,7
-0.6295,0.1347,0.8218,4.4100,81.1300,-5.6700,699,7
-0.5539,0.0625,0.8789,7.7700,140.5600,-0.9100,737,0
-0.3562,0.3333,1.0941,21.6300,273.7000,-30.9400,672,8
-1.1414,0.0078,1.0453,21.7000,437.2900,-27.3000,177,6
-2.6332,0.5851,1.1126,72.2400,403.6200,-56.2100,16,10
-1.2122,0.5505,1.2991,78.0500,79.5900,-71.1900,18,7
0.7139,0.2674,1.0253,5.1800,-188.3000,-59.2200,17,16
-0.0981,0.3553,0.7427,20.8600,-238.7700,-40.9500,20,7
-0.5056,0.3714,0.5602,-3.0800,-325.0800,52.2900,14,6
-0.7525,0.1444,0.7144,38.9900,-307.0900,75.7400,14,3
-1.0082,0.3070,0.7876,41.8600,-300.9300,67.4800,10,7
-0.9204,0.3411,0.9340,21.7000,-215.1100,93.1000,11,8
-1.4791,0.2674,0.7549,16.8000,-119.3500,109.6200,13,9
-2.6074,-0.2474,0.0254,110.1800,-17.1500,134.5400,11,7
-2.0398,-0.3558,-1.1766,49.6300,-22.7500,57.4000,0,8
-2.0872,-0.0337,-1.0204,158.3400,99.6100,-25.7600,8,2
-1.1043,-0.9672,1.6870,-625.5200,-27.2300,-70.4900,7,6
0.2733,1.2947,1.4518,20.2300,-55.4400,-22.5400,31,9
-0.5466,0.3758,0.8979,80.2900,15.2600,5.6000,126,49
-0.5622,0.2630,0.8838,-4.6900,2.2400,-3.4300,238,16
-0.5324,0.1083,0.9023,1.1200,10.2200,-1.4700,322,12
-0.5114,0.0991,0.9130,10.5000,28.5600,-1.5400,392,8
-0.5510,0.1474,0.8638,11.3400,42.4200,-3.7100,456,8
-0.6041,0.1122,0.8140,5.8800,45.6400,-4.4800,487,0
-0.6290,0.1332,0.7842,2.6600,45.0100,-6.9300,505,6
-0.6573,0.1142,0.7637,3.1500,44.0300,-4.8300,554,3
-0.6671,0.1181,0.7530,5.1100,45.2900,-3.5000,604,7
-0.6593,0.1298,0.7823,4.5500,56.6300,1.6800,683,9
-0.6178,0.1532,0.8564,5.2500,89.6000,-0.2100,750,6
-0.5197,0.1430,0.9072,17.3600,157.2900,-5.0400,772,5
-0.3826,0.3948,1.0712,15.1900,302.5400,-49.8400,657,3
-1.6856,-0.0034,1.0053,-11.6200,417.1300,-50.4700,135,12
-2.4864,0.6837,1.1161,60.6900,349.7900,-99.8900,7,7
-0.5226,0.8076,1.5299,70.1400,55.3000,-78.1900,8,6
0.4909,0.3460,1.0248,-19.4600,-181.4400,-50.2600,15,3
-0.1771,0.4368,0.7310,2.5200,-240.5200,-14.9800,19,8
-0.5329,0.2655,0.5719,-1.6100,-309.2600,63.2800,9,4
-0.8569,0.1191,0.6500,29.1900,-309.6800,82.0400,24,7
-1.1434,0.2406,0.7359,66.2200,-305.8300,68.3200,17,14
-0.9653,0.5666,0.8657,2.1000,-247.8700,92.9600,14,6
-1.3322,0.5280,0.8477,-2.2400,-152.3200,127.5400,16,8
-2.2385,-0.3353,0.3406,80.5700,-12.8800,169.7500,14,10
-2.5771,0.1645,-0.6393,60.6900,-35.0000,140.9100,13,5
-1.8949,-0.8203,-1.2717,104.8600,48.3700,-16.9400,9,8
-1.5226,3.7278,-0.3889,-259.4900,-8.2600,-137.4100,9,2
1.7329,-3.0451,-0.2494,-13.4400,-31.9200,-56.8400,18,8
-0.4412,-1.0990,0.8345,3.5700,-11.0600,0.0000,50,29
-0.5832,0.0776,0.8413,-54.1800,-11.9000,-2.5200,145,32
-0.4973,-0.0776,0.9067,-15.3300,7.6300,0.7700,286,7
-0.5041,0.0727,0.9238,10.4300,25.6900,3.0100,352,8
-0.5461,0.1327,0.8760,16.3800,41.7200,1.0500,391,7
-0.5739,0.1444,0.8442,8.8200,45.9200,-4.4100,417,7
-0.6163,0.1430,0.7989,3.5700,48.0200,-8.2600,463,6
-0.6432,0.1161,0.7749,0.6300,47.6000,-7.7000,522,7
-0.6647,0.0913,0.7588,1.1200,48.7200,-4.4100,573,12
-0.6749,0.1366,0.7520,3.9200,53.6200,-3.3600,657,12
-0.6486,0.1664,0.8028,1.4000,72.2400,-3.9900,731,1
-0.5949,0.1137,0.8433,3.8500,121.6600,-1.6800,773,8
-0.4597,0.2928,0.9882,22.2600,217.7000,-20.5800,770,5
-0.8106,0.0190,1.0887,-21.2800,387.8000,-29.5400,363,7
-2.0042,0.4895,1.0063,96.3900,455.2100,-20.0200,19,7
-2.5410,0.3836,1.4869,97.9300,210.4900,-68.0400,15,9
-1.2151,0.4358,1.8437,-26.8800,-203.4900,-60.2000,17,0
0.1635,0.2025,0.6529,12.8100,-222.5300,-59.0100,15,0
-0.4470,0.3187,0.6315,10.1500,-278.3200,19.0400,16,6
-0.6368,0.0190,0.6495,17.6400,-311.2200,88.5500,11,6
-0.9555,0.0151,0.7330,54.5300,-318.0100,64.9600,20,6
-0.9877,0.2211,0.8154,55.3000,-276.1500,46.3400,14,5
-1.4728,0.4026,0.8716,13.9300,-168.7700,47.8800,16,5
-2.3892,-0.0181,0.2684,93.6600,-55.0900,118.9300,10,8
-2.3775,-0.0698,-0.6344,58.5900,-32.9700,106.8200,10,5
-2.0052,-0.6066,-1.0921,83.1600,62.0200,-25.4100,10,3
-1.5333,2.3185,-0.4573,-303.8700,-9.1000,-110.1800,3,1
-1.7397,-0.7876,1.7588,263.4100,-7.9800,-82.6000,20,3
-0.6012,-0.0971,0.9223,77.7000,16.1000,13.6500,131,6
-0.6027,0.2279,0.8257,10.1500,0.0000,-0.6300,255,7
-0.5305,0.0917,0.9008,-21.7000,-11.8300,-5.2500,359,5
-0.4841,0.0478,0.9433,8.1900,10.2200,2.7300,433,7
-0.5129,0.1566,0.8921,16.5200,36.1200,0.2100,489,8
-0.5451,0.1752,0.8696,2.4500,40.4600,-6.4400,561,0
-0.5685,0.0839,0.8477,0.4900,48.6500,-8.8200,591,6
-0.6183,0.0898,0.8076,3.7800,52.5000,-7.5600,647,3
-0.6544,0.0976,0.7818,3.9900,53.9000,-4.9000,695,9
-0.6803,0.1025,0.7418,7.9800,53.9000,-3.8500,753,8
-0.6549,0.1479,0.7798,3.9200,65.9400,-6.2300,813,5
-0.6124,0.1288,0.8657,-1.1200,104.6500,-3.8500,866,6
-0.4675,0.2918,1.0331,15.7500,199.3600,-20.8600,845,1
-0.6124,0.3543,1.2605,-35.4200,374.7800,-67.5500,463,2
-1.8271,0.2952,1.0433,47.6700,442.2600,-60.4800,43,5
-2.4717,0.5070,1.4581,25.2000,253.7500,-110.3200,22,0
-1.9003,0.2494,2.1965,-23.1000,-130.8300,-29.5400,11,10
0.2333,0.2176,0.7544,1.5400,-194.2500,-21.2800,16,3
-0.3333,0.2064,0.7125,18.0600,-271.2500,31.9200,11,7
-0.5929,0.0605,0.5895,18.5500,-318.2900,73.4300,19,8
-0.9999,0.1230,0.7081,65.2400,-303.6600,64.3300,13,0
-0.9199,0.3245,0.7832,30.8000,-262.8500,70.9100,16,2
-1.6763,0.4773,0.9174,54.6000,-200.3400,103.5300,14,10
-1.5948,0.1952,0.3216,0.8400,-122.8500,120.1900,15,1
-2.4781,-0.2962,-0.1625,46.6200,32.4100,84.7000,15,7
-2.1248,-0.1649,-0.6432,92.6100,-24.0100,14.0000,11,6
-1.5855,-0.2738,-0.3357,62.7900,119.4900,-110.9500,12,8
-2.7162,-2.3048,2.8909,-501.2700,-174.0200,-35.5600,5,6
-0.3177,0.7437,1.1331,-101.8500,-28.9800,-7.7700,33,8
-0.6134,0.5695,0.9116,-5.6000,-6.6500,-0.7700,185,10
-0.5744,0.2157,0.8877,-22.5400,-9.4500,-7.6300,349,4
-0.4924,0.0083,0.9218,-0.4900,7.7700,-0.6300,459,2
-0.5207,0.1039,0.9130,13.0200,30.0300,0.7000,559,8
-0.5602,0.1479,0.8652,11.3400,43.1900,-2.8000,584,5
-0.5900,0.1410,0.8267,7.8400,48.6500,-4.4100,583,4
-0.6432,0.1396,0.7637,0.8400,44.9400,-6.7200,588,4
-0.6564,0.1152,0.7608,-1.1900,39.7600,-7.4900,626,5
-0.6632,0.1044,0.7618,-1.0500,42.5600,-7.1400,693,3
-0.6598,0.1220,0.7818,5.3900,53.4100,-3.1500,763,8
-0.5944,0.1025,0.8589,4.5500,81.5500,-2.9400,805,4
-0.5475,0.0986,0.9072,4.8300,137.7600,2.1000,840,5
-0.3416,0.3826,1.0712,18.8300,264.7400,-39.1300,792,1
-1.3215,0.0005,1.1390,-23.9400,418.6000,-44.6600,290,7
-2.2424,0.5793,1.0956,59.6400,434.4200,-54.8800,28,8
-2.1296,0.4797,1.2732,38.7800,180.5300,-95.5500,24,10
-0.0112,0.3924,1.6987,-21.5600,-195.7900,-39.3400,16,5
0.0195,0.3436,0.7842,2.8000,-208.8800,-33.5300,11,5
-0.3709,0.3196,0.6076,-1.8900,-284.9700,28.0000,21,5
-0.5470,0.0859,0.5475,6.1600,-297.3600,74.1300,7,0
-1.0716,0.0766,0.7706,55.5800,-305.2000,63.2800,15,10
-0.9980,0.2567,0.7818,46.4800,-286.5800,56.8400,20,0
-1.0785,0.4641,0.8769,35.0000,-197.4000,73.1500,15,6
-1.7631,0.1264,0.6388,35.3500,-81.2000,99.8900,12,5
-2.6157,-0.0947,-0.1527,113.2600,-59.2900,148.4700,16,10
-2.3770,-0.5729,-1.1322,11.2000,-2.1700,47.2500,13,5
-1.6558,-0.4265,-1.0307,84.0700,106.4000,-54.9500,10,3
-3.6795,-0.7213,2.9387,-773.2900,-106.0500,-36.6100,7,9
0.0117,1.5104,1.4352,-20.8600,-18.8300,-23.1000,39,4
-0.5910,0.3104,0.8764,107.9400,9.6600,4.7600,154,20
-0.5578,0.2747,0.8789,-3.7800,-1.0500,-4.4100,287,11
-0.5246,0.0834,0.9150,-2.9400,7.6300,0.2100,399,9
-0.4939,0.0971,0.9223,10.6400,30.9400,0.4200,464,4
-0.5636,0.1274,0.8540,10.5000,42.7000,-2.2400,501,4
-0.5822,0.1523,0.8355,7.9800,47.2500,-5.1100,547,5
-0.6266,0.1098,0.7935,-1.4000,50.9600,-7.4200,581,7
-0.6568,0.0981,0.7701,5.3900,51.4500,-6.2300,626,5
-0.6769,0.1015,0.7525,5.6700,54.1800,-5.8100,688,5
-0.6993,0.1108,0.7208,4.9000,59.5700,-1.8200,747,6
-0.6456,0.1484,0.8008,4.3400,79.8700,-3.4300,786,7
-0.5627,0.1288,0.8886,7.8400,136.9900,-2.5900,807,5
-0.3279,0.3235,1.1039,14.9800,272.1600,-47.0400,731,8
-1.4313,-0.1015,1.0224,-24.0100,421.2600,-48.3700,183,8
-2.5293,0.5119,1.0238,75.3200,361.6200,-85.1200,16,16
-0.7105,0.6998,1.5626,86.6600,72.5900,-79.1700,21,1
0.4182,0.3265,0.9189,-27.8600,-172.4100,-57.8900,14,8
-0.2103,0.4060,0.7003,13.0200,-223.2300,-17.5700,16,4
-0.5378,0.1396,0.6017,-22.4700,-309.4700,87.9200,16,4
-0.6076,0.1308,0.5866,45.3600,-309.1900,71.8200,11,0
-1.1019,0.2655,0.7491,41.5800,-304.0800,81.6900,11,3
-0.8101,0.2933,0.8750,15.1200,-233.4500,104.7200,15,2
-1.6494,0.2894,0.8345,1.8900,-125.4400,115.3600,12,5
-2.7499,0.0542,0.1176,58.8700,-46.3400,150.0100,18,5
-2.2658,-0.4900,-1.0482,21.4900,-30.8700,87.5000,12,4
-1.9027,-0.4114,-1.0873,144.9700,95.4800,3.0100,9,7
-0.9594,-0.4021,1.9925,-556.7100,-29.4000,-82.3200,7,8
-0.0815,1.0590,1.3264,79.1700,-15.6800,-24.2900,23,8
-0.6700,0.7335,0.8696,31.9900,-7.2800,-0.0700,64,0
-0.5714,0.2133,0.8921,-52.6400,-29.6100,-9.3800,134,27
-0.5026,0.0132,0.9326,-5.9500,-9.0300,-1.6800,218,51
-0.4860,0.0766,0.9121,3.8500,3.3600,-0.4200,277,15
-0.5031,0.0747,0.8989,11.3400,12.8800,-0.4900,323,5
-0.5056,0.1308,0.8921,5.6700,19.5300,-3.1500,377,6
-0.5436,0.1327,0.8491,1.8200,18.4100,-5.3200,454,6
-0.5568,0.0908,0.8613,-3.9200,16.6600,-5.8100,503,5
-0.5563,0.0922,0.8667,-4.4800,20.2300,-5.2500,559,5
-0.5529,0.0756,0.8706,-4.9000,27.5800,-5.7400,615,3
-0.5290,0.0522,0.9028,4.4100,43.0500,-2.8700,670,7
-0.5275,0.0825,0.9189,11.0600,76.5800,-2.5900,710,7
-0.4602,0.1142,0.9799,21.0700,128.1700,-12.0400,758,7
-0.3572,0.1088,1.0165,18.2000,219.3100,-26.1100,729,7
-0.7349,0.3455,0.9789,-56.4200,338.2400,-79.6600,381,9
-1.8071,0.2664,0.7857,-3.7800,297.8500,-90.0200,35,3
-1.6748,0.2806,0.7637,-98.2800,148.2600,-94.7100,14,2
-0.3582,0.1088,1.2044,-117.6000,-32.2700,-21.2800,16,8
-0.0664,0.3787,0.8013,-112.0700,-155.7500,-15.6800,15,8
-0.2582,0.4607,0.6651,-87.0800,-221.8300,29.6100,16,0
-0.6246,0.5739,0.6544,-89.3900,-265.9300,72.9400,12,5
-1.0970,0.6939,0.7881,-74.3400,-262.2200,129.5000,16,6
-1.1585,1.0248,0.7159,-112.2800,-214.6900,218.3300,15,2
-1.2654,1.2268,0.6451,-172.4100,-136.0100,292.5300,8,0
-1.8105,1.1224,0.5534,-170.5200,-91.9800,330.4700,9,8
-1.2688,0.9472,0.1942,-198.9400,-20.5100,322.9800,17,7
-1.1912,0.4294,0.2230,-103.8800,82.2500,291.8300,18,9
-1.8115,0.6173,0.1713,-68.8800,25.4100,210.9100,9,1
-1.0175,0.0449,0.0127,34.3700,65.8000,127.8900,12,8
-1.1512,0.5636,0.0947,36.5400,73.9900,103.3900,9,3
-1.4611,1.1248,-0.0054,-223.8600,-12.8800,-18.2700,7,4
-0.6315,-0.7027,1.2825,-163.5200,-55.6500,-27.1600,7,3
-0.5627,-0.1381,0.7784,-52.5000,-27.4400,-8.1900,14,0
-0.6002,0.1444,0.7457,24.1500,-24.6400,23.6600,20,0
-0.5178,0.5065,0.8150,-54.3900,-37.1000,-6.9300,34,1
-0.5236,0.0063,0.9409,-64.7500,-34.9300,-20.6500,162,3
-0.4807,-0.0195,0.9545,3.9200,2.8000,-2.8700,272,4
-0.5324,0.1513,0.8764,19.1100,23.3100,1.3300,315,8
-0.5778,0.1703,0.8184,6.5800,22.9600,-2.5200,346,9
-0.6085,0.1659,0.7915,-2.3100,13.8600,-6.4400,416,10
-0.6124,0.1298,0.7984,-6.7200,4.7600,-4.8300,470,6
-0.5934,0.1381,0.8272,-5.8100,0.9100,-4.6900,516,10
-0.5822,0.1157,0.8530,-4.2700,5.3900,-4.5500,559,0
-0.5700,0.1142,0.8721,0.4900,18.9700,-2.9400,611,8
-0.5783,0.0917,0.8638,9.3100,37.3800,-2.4500,644,4
-0.5802,0.1161,0.8740,7.7700,59.8500,-3.5000,691,8
-0.5563,0.2255,0.8813,4.8300,92.1900,-17.0100,744,0
-0.5563,0.1303,0.9116,-0.0700,138.5300,-41.1600,775,7
-0.6163,0.5666,0.8867,-35.7000,212.5200,-93.3800,650,6
-1.5333,0.3543,0.7862,-127.6100,215.8800,-165.9000,117,4
-1.8295,0.8672,0.8691,-165.8300,120.8900,-176.2600,28,12
-0.5441,0.5256,1.0858,-314.8600,-15.8900,-90.6500,16,4
0.2225,1.2966,0.8086,-159.1800,-37.3800,185.7100,11,6
-0.1918,0.3240,0.8755,-147.7000,-93.6600,209.9300,14,3
-0.5900,0.1186,0.7950,-122.0100,-185.7800,150.3600,17,3
-0.7076,0.4036,0.7691,-61.9500,-232.8200,80.2200,17,3
-0.8560,0.6193,0.7691,-44.3800,-250.1800,82.1100,14,5
-0.9892,0.8608,0.8013,-44.1000,-213.2900,152.3200,12,7
-1.1873,0.8472,0.8233,-45.5000,-149.9400,232.9600,16,6
-1.1248,0.2533,0.5392,-56.1400,-48.5800,233.6600,16,5
-1.9027,0.3216,0.3714,21.0700,10.2900,176.4700,15,7
-2.0335,0.0371,-0.1537,49.0700,-15.6100,62.2300,9,5
-1.5104,0.1786,-0.5763,58.1700,36.1200,-25.7600,9,8
-1.2312,0.2518,-0.4719,58.3800,111.0200,35.1400,9,6
-2.2238,-2.9480,1.6880,-501.6900,0.0700,-17.7800,7,6
-0.7154,1.5338,1.0199,-157.3600,-96.6000,-21.2800,39,10
-0.4787,0.5226,0.9770,52.7800,-9.8700,-8.1900,224,18
-0.5217,0.2284,0.9292,9.5200,3.0800,-0.0700,394,8
-0.5187,0.1928,0.9179,1.0500,15.1900,-2.9400,519,3
-0.4968,0.1288,0.9457,3.3600,36.2600,-5.6000,587,8
-0.5470,0.0932,0.8789,12.2500,54.9500,-1.3300,624,6
-0.6378,0.1786,0.7671,8.1900,54.3900,-1.3300,627,0
-0.6769,0.1879,0.7213,-2.1700,41.4400,-8.4700,651,10
-0.6617,0.1523,0.7559,-7.9100,35.2100,-12.6700,700,6
-0.6632,0.0747,0.7662,-2.7300,40.1800,-9.1000,762,6
-0.6554,0.1362,0.8135,3.7800,59.2200,-6.0200,819,8
-0.5993,0.1362,0.8398,4.5500,98.4200,-10.5700,856,7
-0.4768,0.2918,1.0497,17.0100,184.8000,-29.8200,832,7
-0.6759,0.6539,1.2137,-20.0900,343.7700,-120.1900,476,7
-1.8022,0.2538,1.0760,7.4200,383.8100,-110.1100,50,4
-1.7319,0.1913,1.2010,-10.3600,162.8900,-109.8300,17,6
-0.0342,0.4270,1.4630,-19.7400,-100.4500,10.2900,16,8
0.0137,0.1791,0.9531,1.4700,-196.9100,34.0900,14,6
-0.2255,0.2230,0.7515,-12.9500,-266.9100,71.1200,15,6
-0.7247,0.1137,0.8457,54.6000,-286.9300,92.1900,13,0
-1.0775,0.1015,0.9858,34.0900,-283.0800,83.1600,13,10
-1.0331,0.2938,0.9496,37.0300,-231.2800,72.4500,13,7
-1.0609,0.1908,0.7588,-16.7300,-123.4800,87.5000,15,16
-1.8861,-0.1552,0.5173,83.3700,-10.7100,136.8500,13,3
-2.1004,-0.0185,0.0117,54.1100,-12.9500,109.4100,14,12
-1.9544,-0.6115,-0.4919,27.0900,-35.6300,-27.5100,12,3
-1.8529,0.0117,-0.7554,165.9000,57.1900,-58.3800,16,3
-2.6630,0.7169,1.2566,-508.6200,-44.6600,-73.6400,4,6
-0.5275,0.8511,0.9745,136.5700,-62.0900,-3.8500,42,8
-0.4119,0.1884,0.8428,52.6400,3.7800,10.3600,98,20
-0.5134,0.1952,0.8569,-21.3500,-11.4100,-5.0400,137,50
-0.5124,0.0278,0.9062,-0.1400,-0.2800,-0.3500,188,32
-0.4968,0.1352,0.9023,8.1200,11.2000,0.0700,210,5
-0.5119,0.1645,0.8789,5.1100,19.4600,-3.5700,292,2
-0.5329,0.1523,0.8769,-0.9800,24.7100,-6.3700,344,0
-0.5456,0.1049,0.8813,-0.6300,34.0200,-6.0200,433,2
-0.5773,0.1054,0.8398,3.8500,42.3500,-2.8000,483,0
-0.6120,0.1415,0.8120,6.3000,45.2200,-3.7100,537,8
-0.6320,0.1342,0.7808,7.2100,47.8800,-1.6100,596,7
-0.6168,0.1942,0.8169,7.2800,56.5600,-4.5500,677,6
-0.5719,0.1161,0.8843,1.9600,92.4000,-10.8500,730,5
-0.3899,0.1801,0.9584,19.9500,152.6000,-3.1500,756,5
-0.2967,0.4407,1.1268,15.5400,284.5500,-47.5300,690,7
-1.5675,-0.1654,1.0594,10.6400,417.0600,-48.3700,146,5
-2.9544,0.4255,1.3669,114.8000,285.3900,-43.1900,14,9
0.3577,1.5792,2.2121,36.2600,-29.4000,-54.8100,16,8
0.3889,0.2606,1.3786,-24.2200,-190.4000,-84.9800,15,6
0.1586,0.4865,0.7969,-14.0000,-293.9300,-15.8900,16,0
-0.5949,0.4114,0.8462,14.9100,-306.5300,79.8000,9,8
-0.9072,0.6617,0.9501,17.0800,-303.0300,94.7100,11,5
-1.0404,0.5363,0.8350,21.2800,-233.8700,104.3700,14,2
-1.0219,0.3880,0.6881,-51.5900,-114.8000,122.0800,16,5
-1.2210,-0.1381,0.5446,7.9100,-6.5800,103.3900,14,12
-1.8485,0.0678,0.3582,99.4000,18.2000,79.3100,14,5
-1.7304,0.0068,-0.0756,80.3600,-45.9200,45.3600,9,5
-1.6651,0.0298,-0.3675,81.6200,-9.3100,-34.7900,17,2
-1.3298,-0.0527,-0.1532,53.4800,21.2800,-101.2900,14,8
-3.7151,2.5942,0.2152,236.9500,52.7800,-189.5600,7,5
0.7052,-3.2672,0.2879,-148.6800,-154.4900,-90.3000,7,5
-0.7174,-0.5583,0.9482,-222.1800,-90.8600,-13.0200,65,4
-0.6134,0.3304,0.9872,-15.9600,-12.1100,6.9300,128,111
-0.5348,0.1942,0.8706,-0.5600,5.5300,3.8500,170,73
-0.5109,0.1440,0.8857,-12.3900,5.8100,-4.3400,237,7
-0.5104,0.0303,0.9267,7.6300,23.6600,-2.3100,341,10
-0.6017,0.1640,0.8486,22.1900,29.8200,1.4000,385,8
-0.5915,0.2264,0.8091,-3.8500,22.8900,-3.7800,431,8
-0.5632,0.1366,0.8516,-9.5900,19.1800,-7.1400,500,12
-0.6027,0.1064,0.7920,-4.0600,25.4100,-3.0100,547,5
-0.6134,0.1566,0.7940,0.0700,28.6300,-8.1200,599,10
-0.5612,0.2011,0.8886,-9.1700,47.6700,-26.8100,700,7
-0.5158,0.0849,0.9877,7.6300,93.5200,-30.8000,757,0
-0.4138,0.1264,1.0185,26.6700,195.1600,-23.8000,777,3
-0.6788,0.5998,1.0004,7.5600,311.6400,-81.3400,445,5
-2.0955,0.1557,1.4474,13.7900,241.6400,-122.9900,22,12
0.2040,0.5749,1.9247,-93.5900,53.6200,-68.1100,15,3
0.8716,0.5856,1.4123,-40.1100,-80.7800,40.9500,14,5
0.1322,0.2913,1.1785,15.6100,-199.2200,33.7400,13,9
-0.5446,0.2435,1.1039,27.0900,-246.2600,25.2700,13,9
-0.7984,0.3299,1.1092,50.5400,-229.9500,77.4900,10,5
-0.7120,0.3226,1.0370,22.8900,-174.6500,104.7200,7,7
-1.0038,0.3255,1.0995,-30.9400,-119.2100,102.3400,11,9
-0.8930,0.0508,0.7569,-18.9000,-70.6300,109.6200,11,6
-1.7021,-0.0830,0.3767,101.8500,35.9100,85.4700,11,0
-2.2258,-0.1191,-0.5558,114.5900,-51.8000,81.1300,18,3
-1.6904,0.4519,-0.2957,54.8800,82.4600,-28.6300,11,4
-1.2468,0.0464,-0.2050,126.7700,139.9300,1.8900,4,8
-3.2662,-2.4073,3.3477,-557.4800,-205.1000,-62.1600,21,0
-0.6266,-0.9008,1.1790,-199.9900,-68.6700,-6.1600,440,10
-0.5519,0.4231,0.9072,-6.1600,-12.8800,-4.5500,592,5
-0.4548,0.1781,0.9902,-7.9100,5.6000,1.4700,633,4
-0.4363,0.0537,0.9902,6.9300,44.4500,2.0300,662,3
-0.5490,0.1093,0.8550,29.1200,78.8200,2.2400,662,6
-0.6451,0.2728,0.7486,6.4400,71.8900,-12.3200,652,4
-0.6822,0.1376,0.7164,-6.4400,65.1000,-21.4900,712,7
-0.7076,0.0468,0.7076,-0.2800,64.1900,-12.6700,767,7
-0.7403,0.1415,0.6915,-0.0700,63.9100,-12.8800,841,0
-0.7071,0.1161,0.7369,-3.7800,78.3300,-20.5100,892,3
-0.6549,0.1035,0.8057,-8.5400,123.9000,-21.7000,909,8
-0.5095,0.4104,1.0677,-7.2100,232.8900,-59.9200,808,8
-1.7256,0.1952,1.1766,-80.9200,340.3400,-138.0400,169,0
-2.6406,0.4880,1.4918,23.5900,282.9400,-130.5500,31,4
-0.4236,1.2776,2.5103,20.0200,3.9200,-64.6100,19,3
-0.0303,0.3850,1.2761,-19.3900,-128.3800,23.8000,13,2
-0.1874,0.3811,0.8852,32.5500,-228.1300,76.5800,20,2
-0.4109,0.0117,0.7086,22.4000,-292.2500,112.3500,19,9
-0.8633,0.1069,0.8818,50.8900,-281.4000,125.9300,14,3
-1.0526,0.1864,0.9262,55.6500,-276.4300,106.1200,7,3
-1.0311,0.3450,0.9414,14.0000,-203.1400,83.6500,11,0
-1.4904,-0.0234,0.6852,-2.5900,-107.8700,92.6800,12,2
-1.9920,0.0776,0.2084,79.2400,-8.0500,126.1400,12,1
-2.2077,0.0732,-0.4211,-3.9900,-33.1100,65.4500,16,7
-2.0555,-0.7159,-0.9321,127.7500,77.2100,-13.5800,15,8
-1.7173,2.8216,-0.8560,-261.5200,32.6900,-228.6900,3,8
-1.6055,-0.4817,1.3674,126.4900,-40.2500,-75.2500,37,5
-0.4421,-0.0556,1.0087,96.5300,5.8100,-3.4300,233,14
-0.5334,0.1000,0.8691,5.8800,-1.6800,-0.0700,337,1
-0.4895,0.0932,0.9121,-12.8100,4.5500,-1.9600,433,4
-0.4729,0.0415,0.9394,11.9700,24.5000,-1.2600,493,10
-0.4831,0.1118,0.9296,23.5900,48.5100,-0.1400,510,3
-0.5822,0.1308,0.8145,15.3300,55.7200,-2.8000,517,5
-0.6461,0.1669,0.7418,6.6500,46.3400,-6.2300,517,8
-0.6588,0.1576,0.7520,-3.0100,32.7600,-9.9400,567,10
-0.6456,0.0961,0.7759,-1.4000,31.0100,-6.3000,639,7
-0.6520,0.1518,0.7798,5.2500,36.1900,-2.4500,715,3
-0.6144,0.1532,0.8555,1.0500,60.8300,-9.6600,793,6
-0.5246,0.1083,0.9409,3.9900,116.8300,-10.7800,848,5
-0.4070,0.4514,1.0848,15.6100,231.9100,-40.8100,822,6
-1.0263,0.3396,1.0463,-51.0300,370.5800,-95.6900,343,12
-1.9574,0.3411,0.9980,28.9100,388.9200,-74.9700,36,6
-1.7744,0.2591,1.2693,58.3800,167.5800,-89.8800,22,7
-0.2196,0.6456,1.5840,10.7800,-110.8800,-22.4700,18,6
-0.0488,0.3387,0.9501,20.2300,-180.6700,3.5000,16,2
-0.2045,0.3509,0.7520,1.1200,-245.1400,61.6700,12,6
-0.6412,-0.0205,0.7828,44.8000,-274.6800,89.8800,14,8
-0.9584,0.0039,0.8472,47.1800,-297.1500,75.7400,14,9
-0.8301,0.2074,0.8418,29.4700,-269.6400,64.9600,12,12
-1.1009,0.4055,0.9316,10.6400,-175.1400,67.0600,10,0
-1.7968,0.0083,0.6993,31.2200,-68.6700,94.9900,20,8
-2.5108,0.2196,-0.0512,20.2300,-69.8600,81.9000,16,7
-2.0681,-0.9755,-0.9648,50.9600,26.4600,9.5900,10,10
-1.7529,-0.1044,-0.8203,97.0200,86.8700,-17.0100,8,8
-1.4713,-0.6276,0.8647,-607.3900,-53.2700,-19.6000,5,8
-0.2884,1.4118,1.2776,-90.1600,-56.8400,-12.8800,30,2
-0.6617,0.5212,0.9243,7.0700,-2.5900,3.5700,126,41
-0.5636,0.2503,0.8799,-15.3300,-4.7600,-0.5600,207,22
-0.4826,0.1064,0.9213,1.1900,7.9800,1.0500,301,4
-0.4782,0.1025,0.9370,12.3200,25.9700,-0.2800,374,2
-0.5300,0.1537,0.8696,15.9600,39.9000,-2.5200,447,9
-0.5680,0.1762,0.8394,5.1800,44.3100,-6.7900,496,8
-0.6134,0.1332,0.8008,0.8400,47.3900,-10.1500,547,4
