ax,ay,az,gx,gy,gz,toe,heel
-0.57,0.0566,0.8579,-6.58,-2.45,-1.47,87,208
-0.5597,0.0815,0.8686,0.56,-3.36,0.56,98,218
-0.5641,0.0903,0.8647,-0.21,-2.66,0.28,111,228
-0.5641,0.0464,0.8642,-0.07,-2.8,1.47,120,226
-0.5656,0.0771,0.8623,-2.8,-2.38,1.33,117,225
-0.5651,0.08,0.8594,-0.14,-4.76,1.19,112,233
-0.5666,0.0761,0.8525,-1.47,-6.09,0.21,108,274
-0.5666,0.0732,0.8618,-1.75,-7,0.35,94,320
-0.5553,0.0673,0.8745,-0.42,-5.88,0.98,59,343
-0.5651,0.0786,0.8613,7.14,0.42,1.89,40,329
-0.5607,0.0264,0.856,7.91,0.35,-0.28,17,257
-0.5583,0.0615,0.8603,12.6,4.27,-0.91,14,175
-0.5553,0.1049,0.8569,6.51,2.73,-1.05,7,116
-0.5339,0.0844,0.8833,15.61,11.76,-5.6,5,70
-0.5295,0.0273,0.9145,29.05,26.67,-5.67,4,23
-0.5588,0.3675,0.9579,46.41,38.36,-17.78,6,28
-0.6071,0.3133,0.9448,89.11,36.61,-63.35,7,21
-0.6578,0.8882,1.361,14.28,-34.02,-60.06,7,19
0.1293,0.4665,0.8072,15.96,-25.62,-14.56,6,24
-0.1039,0.5065,0.8535,3.64,-11.62,38.29,6,13
-0.2328,0.3411,0.9877,6.02,-2.66,51.8,6,15
-0.3601,0.2547,1.0673,14.35,-13.65,39.83,11,14
-0.2474,0.1225,1.0663,15.61,-17.08,29.54,6,16
-0.2381,0.0722,1.1419,17.78,-28.63,17.85,5,9
-0.1571,-0.0005,1.1805,18.55,-34.79,0.91,8,5
-0.3343,0.021,1.2395,22.82,-53.97,-8.4,7,13
-0.1571,0.0351,1.1605,-2.45,-45.57,-25.13,6,9
-0.3382,-0.0268,1.12,3.64,-64.12,-30.73,2,11
-0.4724,-0.0986,1.1029,-6.86,-52.71,-49.98,4,10
-0.4821,-0.0015,0.9048,58.1,-87.71,-33.39,8,10
-0.6232,0.0249,0.8838,35.49,-67.48,-34.93,8,16
-0.5685,0.0586,0.7627,38.22,-73.92,-29.82,6,12
-0.7213,0.0722,0.6227,43.47,-59.5,-31.15,1,10
-0.9248,0.0556,0.4563,39.76,-46.55,-30.31,3,6
-0.896,-0.0381,0.2542,29.12,-12.39,-29.89,5,10
-1.0175,0.0478,0.1947,9.45,21.7,-30.45,3,5
-0.2455,-0.1318,0.9052,-257.04,108.29,-105.98,7,158
-0.2025,0.9033,0.9443,120.61,189.21,-31.85,3,602
-0.6769,-0.6432,0.8691,44.87,57.61,-5.6,6,807
-0.6041,0.6134,0.913,-72.45,13.79,-8.33,1,841
-0.5861,0.1449,0.9008,28.7,5.88,-5.18,6,873
-0.569,-0.0107,0.8486,-3.15,4.55,1.75,6,884
-0.5622,0.1078,0.8506,-7.7,6.09,4.76,6,831
-0.5871,0.2103,0.8408,-15.05,1.26,-0.84,4,752
-0.5646,0.1176,0.8579,-11.34,0.7,-2.87,12,671
-0.5588,0.1254,0.8506,-6.09,0.63,-3.57,3,595
-0.5749,0.0952,0.8491,-9.66,0.84,-3.5,8,481
-0.5671,0.0991,0.8501,-7.63,4.2,-3.08,24,366
-0.5754,0.0903,0.8428,-5.81,6.79,-3.29,49,243
-0.5851,0.0727,0.8467,-6.23,8.82,-3.08,74,115
-0.5734,0.0766,0.8379,-0.07,12.11,-2.03,115,64
-0.5836,0.1025,0.8408,-3.5,17.22,-3.36,169,35
-0.5544,0.0947,0.8847,4.97,29.12,-2.24,210,32
-0.5563,0.0961,0.8989,8.19,47.88,-3.22,278,23
-0.5441,0.1196,0.9448,4.69,76.93,-4.69,327,20
-0.5061,0.1957,1.0004,9.59,130.27,-18.06,342,19
-0.4846,0.1181,1.0024,3.43,202.23,-19.39,299,15
-0.7725,0.1015,0.9228,-11.62,286.79,-29.33,132,15
-1.157,-0.2025,0.8423,12.18,303.87,-14.14,9,14
-1.6904,-0.1893,0.8779,63.28,259.14,1.19,7,17
-0.9965,0.0732,1.242,116.34,172.34,-1.05,10,13
-0.3045,0.3245,1.7143,64.4,-46.83,-113.89,6,21
0.1484,0.225,1.1385,49.21,-112.07,-95.41,8,13
-0.2494,0.365,0.9697,0.35,-192.22,-4.62,8,10
-0.5812,0.2108,0.914,-8.75,-235.83,52.78,9,12
-1.5128,0.2342,0.8847,-6.16,-270.2,52.64,7,14
-0.9667,0.266,0.6837,-14.84,-232.96,61.81,7,9
-1.1424,0.3972,0.9018,-21.21,-193.34,38.15,8,11
-1.6455,0.1932,1.036,-8.47,-191.87,54.32,3,8
-1.1707,0.4455,0.7793,15.96,-211.26,82.74,5,10
-1.0799,-0.0703,0.6617,62.23,-152.88,85.96,1,9
-1.1131,-0.0107,0.5383,39.34,-96.46,23.66,7,14
-1.8276,-0.3187,0.0449,108.99,-160.72,-14.14,3,11
-1.73,-0.1181,-0.7969,64.47,-35,-38.22,3,10
-1.3469,-0.5632,-1.6392,-155.26,144.41,-40.81,10,214
-1.5499,0.2826,1.056,45.15,191.45,-58.38,9,727
-0.9745,-0.1118,1.0058,81.27,61.46,-0.84,9,903
-0.7422,0.2542,0.9155,-87.99,8.82,-7.28,9,894
-0.5885,0.1664,0.8764,1.61,7.21,-9.73,8,880
-0.5651,0.0142,0.8652,-9.31,7,-3.15,9,839
-0.5661,0.1723,0.8364,-4.55,8.68,-3.92,7,746
-0.5768,0.1249,0.8379,-15.82,1.61,-7.14,7,628
-0.5773,0.1127,0.8594,-10.22,-1.33,-6.09,13,489
-0.568,0.1191,0.854,-4.34,0.35,-4.83,47,361
-0.5602,0.1093,0.8496,-1.05,4.97,-7.28,98,205
-0.569,0.0927,0.853,-1.12,11.97,-8.75,163,66
-0.5749,0.0849,0.8584,0.14,19.46,-8.54,250,25
-0.5739,0.1059,0.8657,0.98,29.19,-7.63,343,17
-0.5768,0.1049,0.8711,-2.87,40.46,-7.42,407,20
-0.5602,0.0952,0.9033,-5.11,57.75,-8.75,486,24
-0.5675,0.0361,0.9013,5.53,85.33,-6.37,563,25
-0.5412,0.1684,0.9443,9.59,132.16,-8.47,606,15
-0.5007,0.2133,0.9594,-16.1,225.96,-29.82,543,24
-0.6066,0.2401,1.0804,-32.34,342.79,-75.04,297,17
-1.5933,0.0386,0.9628,-29.26,360.85,-93.45,56,10
-1.7119,0.4763,0.8194,-6.65,263.48,-99.89,16,13
-0.2655,0.5734,2.1672,-16.24,53.83,-48.3,7,16
0.1503,0.6198,1.2127,-43.61,-123.83,-22.54,6,15
0.0903,0.244,0.8491,3.22,-159.46,32.55,7,9
-0.5754,0.2123,0.8438,7.21,-214.34,64.47,16,12
-0.8223,0.1313,0.8257,38.99,-268.87,68.74,7,7
-0.975,0.0566,0.7198,50.96,-263.76,55.51,11,10
-1.1165,0.1684,0.8398,46.34,-245.49,55.23,12,8
-1.0307,0.3621,0.873,27.72,-207.13,74.06,7,9
-1.1697,0.2484,0.9833,-25.27,-159.32,82.18,8,9
-1.9832,-0.204,1.0956,9.73,-170.45,94.36,7,4
-1.4401,-0.0678,0.5202,35.35,-205.17,84.14,7,9
-1.5001,-0.3592,0.1625,71.89,-160.93,22.4,0,3
-1.8837,-0.5729,-0.6686,125.23,-103.32,-10.43,6,8
-1.5836,0.6642,-1.6651,-133.56,93.17,-75.74,3,7
0.3436,0.3914,1.8632,124.6,287.42,19.39,6,518
-2.7064,-1.6743,1.6299,-158.9,132.37,-60.41,4,909
-1.0136,1.1839,0.4763,219.45,19.18,-19.88,10,925
-0.6632,-0.3479,0.7984,-63.77,1.68,-8.68,0,907
-0.5114,0.2826,0.8369,-43.26,-0.91,-10.78,8,834
-0.5778,0.04,0.8613,11.41,6.37,-1.75,7,732
-0.5949,0.1376,0.8301,-9.87,2.59,-4.41,9,603
-0.5978,0.0917,0.8452,-10.85,-2.45,-4.69,3,502
-0.5749,0.1098,0.8516,-5.6,-1.89,-5.67,17,399
-0.5695,0.1196,0.8467,-3.85,2.52,-6.58,74,300
-0.5592,0.1044,0.8569,-6.58,7.14,-9.31,133,122
-0.5768,0.0825,0.8594,-0.84,15.61,-9.45,215,40
-0.5714,0.0659,0.8506,3.92,25.06,-6.3,267,30
-0.5807,0.1083,0.8594,0.28,37.31,-6.58,366,26
-0.5524,0.1025,0.9179,-9.03,58.45,-10.64,459,24
-0.5436,0.0244,0.9721,-3.64,95.48,-8.47,534,21
-0.5124,0.1928,0.9799,9.24,149.45,-10.99,554,22
-0.5046,0.2869,0.9706,-21.56,226.45,-34.16,527,19
-0.7261,0.365,1.1078,-62.72,333.62,-84.21,300,20
-1.2942,-0.1547,1.0682,-55.23,396.9,-102.97,63,17
-2.3009,0.3972,0.9731,23.59,323.82,-104.02,12,15
-0.9662,0.3924,2.2394,-5.88,85.12,-55.93,9,11
0.3665,0.426,1.2117,1.61,-90.72,-6.86,5,9
-0.1127,0.2347,0.9575,44.31,-153.37,48.09,11,12
-0.2845,0.1127,0.8316,16.52,-220.78,75.53,10,9
-0.8672,-0.1122,0.8608,62.51,-265.09,77.21,7,14
-1.0082,-0.0151,0.8286,50.47,-281.68,56.98,6,11
-1.1761,0.1122,0.852,51.8,-283.29,45.01,7,14
-1.1287,0.204,0.9584,42.56,-244.65,57.26,6,16
-1.6777,0.3343,1.1331,21,-221.41,86.87,4,13
-1.8661,-0.1542,0.9706,32.97,-233.8,123.62,6,10
-1.2307,0.1181,0.1913,29.75,-202.58,101.22,7,16
-1.9764,-0.7642,-0.1957,112.98,-122.5,19.04,17,8
-1.6309,-0.0771,-1.1331,150.57,-25.62,14.98,7,16
-1.3971,0.1928,-1.4962,-314.44,152.6,-22.05,8,64
-0.9399,0.4577,1.076,-55.79,247.59,5.11,6,644
-1.9915,-0.5846,1.2473,23.87,136.92,-61.11,7,992
-0.1532,0.8828,1.2376,-256.06,16.03,-4.97,11,984
-0.6105,-0.224,0.9789,78.96,11.97,-9.17,8,944
-0.629,0.0654,0.8457,-66.71,-0.7,-5.25,7,895
-0.548,0.2455,0.8696,-7.42,6.65,-0.84,7,781
-0.591,0.2079,0.8291,-11.06,2.31,-8.19,8,610
-0.5778,0.1171,0.8584,-2.24,-1.75,-7.56,6,484
-0.5641,0.1186,0.853,-1.68,1.33,-6.86,11,368
-0.5729,0.1098,0.8486,-8.47,5.32,-8.19,49,210
-0.5719,0.1015,0.8564,-1.47,12.25,-8.61,113,68
-0.5827,0.0859,0.8564,1.75,21.49,-6.58,181,23
-0.5939,0.1,0.8467,4.97,30.31,-4.97,254,25
-0.5758,0.1391,0.8652,-0.56,41.93,-7.56,335,19
-0.5695,0.0717,0.9052,-2.94,64.75,-8.89,410,19
-0.5363,0.0429,0.9467,-3.01,101.5,-5.81,463,22
-0.4836,0.3162,1.0721,3.5,172.34,-15.4,509,19
-0.3884,0.3113,1.057,-23.59,273.91,-39.62,455,18
-1.038,0.1322,1.0941,-58.45,407.26,-64.12,164,11
-2.1604,0.0361,1.0146,15.05,380.73,-37.66,15,15
-1.2468,0.0366,0.9765,73.64,213.92,-36.89,15,16
-0.794,0.4695,1.9208,61.95,-35.49,-58.59,16,12
0.1459,0.1606,1.077,18.48,-130.69,-44.24,10,14
-0.2196,0.4011,0.9091,11.48,-202.51,13.3,9,10
-0.5207,0.143,0.8682,0.21,-245.35,51.45,16,12
-0.793,0.263,0.8247,24.43,-269.36,47.25,8,12
-0.6881,0.306,0.7139,25.69,-278.25,37.03,7,9
-1.0921,0.286,0.8618,31.5,-261.03,37.94,5,11
-1.0409,0.4265,0.8657,21.84,-207.97,53.62,8,11
-1.7041,0.2484,1.0292,28.07,-164.71,79.17,7,7
-1.8481,0.2108,0.9789,58.45,-234.78,116.48,0,6
-1.7846,-0.5578,0.3045,71.05,-154.28,120.82,4,7
-1.7192,-0.1928,-0.2694,50.68,-121.52,44.31,7,8
-1.6616,0.0234,-1.2839,17.71,22.12,-29.12,4,11
0.3889,-1.4245,1.6202,-84.28,223.51,31.78,12,405
-2.1301,-1.0472,1.6236,-180.25,174.51,-43.19,4,857
-1.8276,1.0429,0.9209,244.72,41.86,-35.35,3,902
-0.5797,-0.2982,0.6886,-113.26,-2.24,-16.31,6,903
-0.5666,0.3704,0.8979,-2.52,0.07,-9.73,4,903
-0.5597,0.0254,0.873,6.16,3.5,-2.45,5,868
-0.5636,0.1396,0.8189,0.28,4.69,0.63,6,776
-0.5758,0.1659,0.8452,-20.72,-3.92,-5.67,9,673
-0.5529,0.1225,0.8618,-3.22,-1.75,-3.43,6,555
-0.5656,0.1308,0.854,-3.43,0.98,-4.76,7,441
-0.5568,0.1205,0.8525,-3.99,3.57,-6.93,34,310
-0.5641,0.1103,0.8594,-2.52,10.22,-7.98,106,109
-0.568,0.1093,0.8579,-0.21,16.59,-7.63,156,32
-0.5592,0.0839,0.855,1.89,25.34,-6.58,240,21
-0.5592,0.12,0.8696,0.63,36.75,-7.42,329,28
-0.5431,0.1332,0.9267,-6.02,57.61,-11.13,418,22
-0.49,0.0181,1.0072,-0.98,101.36,-3.64,490,17
-0.469,0.3235,1.057,13.58,176.4,-21.77,542,18
-0.4006,0.3294,1.0487,-28.84,271.25,-40.88,511,18
-0.9584,0.5646,1.0975,-71.26,383.81,-99.96,211,20
-2.0476,0.2011,0.9116,-18.97,396.41,-90.93,15,15
-1.8334,0.1547,1.1527,14.77,267.12,-105.63,13,17
-1.913,-0.1835,1.5665,-20.3,31.36,-63.84,14,9
0.2884,0.2987,0.8506,-1.54,-102.76,-35.98,11,11
-0.0473,0.2664,0.7286,-23.52,-157.15,27.51,3,8
-0.5602,0.3489,0.7769,-13.23,-209.44,74.06,7,8
-0.7174,0.1864,0.6895,-15.54,-281.19,93.66,12,10
-1.0336,0.2791,0.6832,13.51,-293.37,75.88,6,7
-1.2283,0.4314,0.7588,9.17,-296.87,66.36,3,3
-1.1151,0.5568,0.8833,0.56,-251.16,92.68,8,11
-1.2029,0.5466,1.0214,-8.54,-172.76,111.58,9,7
-2.2936,0.1498,1.1297,31.08,-170.66,135.52,0,6
-1.4713,-0.2767,0.4299,52.5,-224.56,147,9,9
-1.9481,-0.5373,-0.3562,142.45,-136.08,46.62,7,10
-1.4167,-0.245,-1.3913,162.68,-15.96,-35.7,2,9
-1.0263,1.6363,-0.5446,-230.86,105.35,-65.45,14,19
0.2298,-0.5544,0.691,70.21,255.01,79.87,7,543
-1.891,-1.6494,1.5797,-61.53,133.49,-87.71,3,951
0.2704,1.8212,1.1605,-231.63,7.84,-4.13,6,953
-0.771,-0.5085,0.8979,36.33,4.13,-9.45,6,942
-0.7379,0.2386,0.8408,-64.54,-1.12,-7.28,3,896
-0.5632,0.1703,0.8872,11.9,5.04,0.91,8,821
-0.5671,0.2591,0.8101,1.47,1.12,-6.3,5,693
-0.5729,0.0195,0.8477,-10.15,-3.15,-6.72,5,600
-0.588,0.1396,0.8501,-9.31,-0.98,-3.78,5,497
-0.5671,0.1591,0.8462,-4.97,1.47,-4.69,19,396
-0.5773,0.122,0.8472,-6.44,4.41,-5.81,35,262
-0.5729,0.1074,0.8569,-6.3,9.24,-7.56,87,121
-0.5632,0.0825,0.8594,-1.54,19.81,-7.21,161,31
-0.5876,0.1205,0.8525,1.68,28.42,-6.51,236,25
-0.5597,0.1366,0.876,3.5,42.77,-8.96,338,16
-0.5456,0.0449,0.9165,-4.62,71.54,-8.89,417,22
-0.5324,0.1776,0.9994,10.99,115.22,-9.73,479,25
-0.4895,0.2367,1.117,2.59,185.08,-33.32,521,24
-0.4094,0.2621,1.0053,-21.42,289.94,-46.76,466,26
-1.0433,0.388,1.1175,-103.25,384.16,-91.49,171,20
-1.8139,0.1796,1.0795,-31.71,389.76,-73.08,7,14
-1.8461,0.2152,1.2107,2.45,272.09,-101.5,12,11
-1.6914,-0.346,1.6821,64.33,-40.18,-61.95,9,11
0.1303,0.385,0.7408,12.46,-116.83,-44.17,6,11
-0.143,0.387,0.7125,-6.16,-157.5,8.33,7,9
-0.6329,0.3109,0.7803,-11.27,-245.49,78.61,7,5
-0.7071,0.0839,0.6578,23.17,-277.76,94.71,9,4
-0.9706,0.0142,0.673,8.54,-292.46,74.9,6,16
-1.1902,0.3396,0.7608,12.04,-281.26,68.88,10,7
-1.1161,0.4006,0.854,-24.71,-245.28,91.28,12,8
-1.3801,0.467,0.9238,-27.79,-201.04,111.16,4,7
-1.872,0.3728,0.9428,-10.57,-166.67,142.73,6,5
-1.852,0.325,0.6788,8.96,-192.92,166.53,8,3
-1.3859,-0.7715,0.2513,60.83,-141.05,157.5,4,4
-2.1662,-0.1474,-0.7466,92.05,-126.35,59.36,8,7
-1.199,0.2606,-0.3924,78.4,60.34,-20.09,12,9
0.7598,-0.0917,1.1732,-92.61,224,-6.23,8,388
-1.5958,-0.6627,1.0731,-146.23,249.55,-37.31,5,856
-2.5171,0.8384,1.0521,308.91,93.66,-45.85,10,963
-1.1097,-0.1059,0.202,-226.38,-26.67,6.65,5,958
-0.5134,0.5617,0.875,56.98,5.25,-10.92,4,877
-0.5475,-0.1889,0.8525,-26.67,4.34,-5.25,6,781
-0.569,0.1542,0.8579,-18.69,2.52,-3.57,9,670
-0.5597,0.205,0.8452,-9.87,-0.91,-5.81,7,584
-0.5666,0.1049,0.8442,-1.54,-3.99,-5.32,12,560
-0.5719,0.0981,0.8525,-6.65,-2.94,-4.41,18,513
-0.5705,0.1318,0.8477,-0.84,-1.26,-2.87,20,455
-0.5646,0.1386,0.8467,-2.73,-2.52,-3.85,44,425
-0.5558,0.1113,0.8491,-4.13,-1.96,-4.06,63,391
-0.5632,0.1098,0.855,-4.27,0.91,-4.06,92,337
-0.5695,0.1225,0.8433,-1.89,4.2,-5.04,119,220
-0.5749,0.1118,0.8472,-3.36,4.62,-5.67,158,120
-0.5656,0.0825,0.8481,-0.63,8.68,-2.94,180,55
-0.5832,0.0903,0.8364,4.55,10.78,0.63,197,21
-0.5866,0.1005,0.8296,3.57,12.53,0.84,231,27
-0.6002,0.1015,0.8296,4.97,12.74,1.54,246,23
-0.611,0.1196,0.8257,1.47,14,1.19,279,18
-0.5988,0.1293,0.8311,2.73,18.55,0.07,319,21
-0.6022,0.1171,0.8389,1.89,24.36,1.26,340,17
-0.6095,0.1181,0.834,-0.91,32.06,3.5,380,21
-0.6198,0.1235,0.8262,1.19,41.86,2.31,393,15
-0.632,0.1142,0.8096,1.33,54.25,1.19,403,14
-0.673,0.1796,0.7618,-1.33,63.63,-0.42,404,7
-0.6939,0.1454,0.7286,-1.96,74.27,-6.02,384,6
-0.7008,0.143,0.7252,-7,86.31,-9.24,356,10
-0.7281,0.2352,0.7525,-14.7,114.03,-24.08,277,5
-0.8838,0.1571,0.6939,-61.81,133.21,-51.38,157,8
-1.1053,0.1488,0.8496,-97.65,126.49,-72.66,35,11
-1.078,0.0415,0.7915,-134.54,119.14,-66.85,12,11
-1.0126,-0.121,0.7603,-206.85,110.53,-40.46,17,11
-0.2899,0.3314,1.2688,-111.02,47.46,42.42,16,6
-0.3118,0.2035,1.1761,-97.44,-43.4,57.75,12,10
-0.4016,0.2777,0.9179,-81.27,-103.18,37.52,16,7
-0.5378,0.4392,0.7774,-90.16,-130.62,35.98,12,4
-0.7169,0.5885,0.7383,-84.21,-157.08,63.49,7,12
-0.9526,0.6495,0.7915,-90.51,-161.49,97.93,14,13
-0.9682,0.7383,0.7457,-95.69,-154.7,122.71,11,8
-0.9155,0.7959,0.651,-96.32,-133.56,135.17,8,5
-1.1385,0.8569,0.7242,-77.84,-140.21,149.45,7,9
-1.018,0.752,0.6705,-55.16,-128.66,147.07,8,5
-0.6852,0.6217,0.571,-57.54,-83.79,120.75,5,9
-1.3444,0.223,0.9096,19.25,-86.03,117.53,5,7
-1.0146,0.3109,0.7569,50.61,-105.14,121.31,4,12
-0.9501,0.1503,0.6959,16.94,-107.8,95.69,8,11
-0.9662,-0.0429,0.6212,76.3,-83.51,47.74,8,10
-1.1483,-0.2201,0.488,39.55,-99.19,-21.28,7,8
-1.1263,-0.1932,0.0283,91.21,-49.77,-39.62,14,14
-1.0956,-0.0068,-0.2508,3.85,1.33,-17.15,5,11
0.3006,2.257,1.2039,-66.5,78.12,-49.98,8,3
-0.1825,-1.2058,0.7159,-116.34,130.62,15.33,6,348
-0.6671,-0.2567,1.2058,-106.89,158.83,-39.55,6,641
-1.5426,0.3201,1.0248,103.74,77.35,-15.89,3,823
-0.4958,0.0083,0.7969,-58.45,9.8,-4.97,2,838
-0.5739,0.1357,0.8999,-23.1,1.47,-4.34,4,873
-0.5695,0.1196,0.8686,-3.08,0.84,0,0,883
-0.5651,0.1171,0.8545,0.14,4.55,5.46,8,876
-0.5861,0.1859,0.8262,-5.88,1.26,2.94,4,818
-0.5641,0.1449,0.8491,-7.49,-2.17,-0.14,0,755
-0.5568,0.1654,0.8369,-3.57,-1.96,-2.38,5,708
-0.5578,0.1376,0.8462,-6.23,-2.31,-4.34,7,653
-0.5597,0.1327,0.8545,-5.95,0.42,-4.27,3,551
-0.5636,0.1401,0.8545,-4.27,3.5,-4.13,15,451
-0.5632,0.1288,0.8555,-6.65,5.11,-4.83,54,344
-0.5778,0.1269,0.8413,-5.18,9.03,-4.83,105,217
-0.5656,0.1322,0.8394,-3.92,12.18,-6.3,157,95
-0.5646,0.1142,0.8574,-4.2,19.95,-7.35,245,35
-0.5475,0.083,0.8916,-0.35,34.58,-6.93,316,31
-0.4914,0.1484,0.9906,0.98,66.57,-6.23,403,28
-0.4802,0.0986,1.0233,-6.65,134.05,-20.58,436,24
-0.4538,0.2338,1.0429,-1.89,206.85,-25.34,333,32
-0.7418,0.224,1.0399,-23.24,308.21,-55.86,135,25
-1.2551,-0.2577,0.9945,5.81,345.1,-47.11,9,20
-1.6363,-0.0737,0.9301,80.5,250.81,-41.51,9,7
-0.6066,-0.2352,1.6543,119.63,74.27,-81.83,7,10
0.2806,0.0356,0.9965,136.71,-36.4,-95.41,4,10
-0.1078,0.2533,0.9794,121.73,-103.46,6.37,7,4
-0.3274,-0.3172,1.0189,106.68,-176.12,81.13,7,16
-0.5636,-0.5807,1.076,138.04,-227.01,65.87,10,9
-0.8701,-0.549,1.0985,129.64,-267.61,7.21,3,16
-1.0404,-0.3782,1.12,100.45,-276.36,-30.1,7,12
-1.1717,-0.2704,1.22,69.51,-269.08,-46.83,8,15
-1.4108,-0.2411,1.2532,77.07,-257.11,-45.57,6,14
-1.628,-0.3353,1.0541,118.93,-243.6,-10.15,3,9
-1.6084,-0.5719,0.5251,110.6,-208.18,-20.86,3,8
-1.8544,-1.1092,-0.6193,175.98,-131.46,-98.35,8,14
-1.4894,-0.0132,-0.5397,7.63,11.34,-172.62,12,13
1.2649,2.0023,0.1859,-218.33,120.33,-221.34,3,45
-0.6764,0.5754,1.0497,197.89,242.13,-2.03,10,564
-2.1218,-1.341,1.4015,-180.04,62.86,-41.58,9,903
-0.8501,1.0775,0.8813,90.72,16.38,-16.03,5,927
-0.5807,-0.4704,0.833,-59.92,0.63,-5.32,0,931
-0.65,0.4407,0.9033,-18.27,1.4,-4.9,8,914
-0.5651,0.0869,0.8608,3.01,2.94,1.12,9,876
-0.5666,0.1942,0.8135,-3.57,3.5,-1.12,9,801
-0.5973,0.1527,0.8398,-16.03,-4.27,-5.25,7,739
-0.5734,0.1166,0.8667,-4.9,-1.82,-3.08,6,656
-0.5705,0.1454,0.8491,-3.92,0.14,-3.64,5,556
-0.568,0.1366,0.8506,-4.83,3.64,-4.55,16,447
-0.5583,0.1264,0.8638,-2.94,11.48,-4.69,53,268
-0.569,0.1,0.856,0.07,20.09,-4.83,112,80
-0.5714,0.1113,0.8574,3.29,30.87,-2.24,190,30
-0.589,0.141,0.855,6.16,44.45,-2.87,276,27
-0.5397,0.1318,0.9008,2.94,66.22,-3.92,329,22
-0.5397,0.0991,0.9418,3.92,103.53,-4.34,378,25
-0.528,0.205,0.9584,13.93,161.63,-4.27,388,18
-0.3104,0.222,1.077,15.89,280.42,-21.98,295,20
-1.2629,-0.2074,1.038,2.1,401.87,4.76,96,25
-2.1965,-0.1064,1.2561,131.88,362.88,40.6,3,15
-1.1873,0.1762,1.4284,221.34,169.33,0.77,8,7
0.1932,0.1571,1.6285,152.11,-90.44,-165.55,6,11
0.0439,0.3118,1.0634,146.3,-144.41,-83.72,8,17
-0.2469,-0.0693,1.0243,92.05,-204.05,49.91,2,17
-0.6686,-0.6832,1.0629,107.87,-246.4,69.72,10,11
-0.9067,-0.3065,1.0516,118.09,-303.24,-9.38,5,11
-1.0951,-0.3865,1.0292,92.33,-304.08,-51.31,7,12
-1.0648,-0.1342,1.0336,64.19,-267.68,-63.21,4,11
-1.3518,-0.1859,1.0228,73.71,-215.74,-56,14,10
-2.2043,-0.0825,0.8921,141.12,-245.42,22.05,2,10
-1.5679,0.0044,0.4002,98.07,-209.44,72.38,6,7
-1.9627,-0.326,-0.2577,51.73,-160.86,43.4,6,10
-1.9696,-0.5636,-1.1683,69.79,-36.05,12.6,6,6
-0.6842,0.7637,-1.3137,-73.92,98.84,-78.26,8,13
-0.7096,0.0903,0.5793,-67.41,203,3.29,2,506
-1.3757,-0.9233,1.3552,-51.38,115.57,-60.2,4,943
-1.605,1.7851,1.0365,100.38,39.55,-36.61,7,988
-0.7135,-0.6715,0.713,-87.01,8.82,-14.21,2,981
-0.591,0.4338,0.9135,-58.94,4.9,-10.92,8,924
-0.5758,0.1039,0.8755,11.76,6.37,-2.17,5,831
-0.5729,0.1747,0.8154,-9.8,5.11,-4.76,8,722
-0.5602,0.0917,0.8423,-12.32,1.47,-6.58,5,639
-0.5783,0.1059,0.8413,-9.59,-0.42,-5.81,0,535
-0.5627,0.1679,0.8433,-1.26,-0.49,-9.45,13,448
-0.57,0.1049,0.855,-3.29,2.03,-10.99,63,328
-0.5841,0.1025,0.855,-2.1,9.45,-12.67,142,125
-0.5651,0.0815,0.8677,1.19,20.44,-10.85,236,34
-0.547,0.1083,0.8867,1.75,34.79,-9.8,343,31
-0.5388,0.2484,0.9296,-2.1,58.17,-11.62,432,22
-0.5461,0.0747,0.9604,-4.2,94.85,-10.92,524,24
-0.4631,0.0874,0.9994,22.54,152.39,-9.17,572,12
-0.4514,0.2225,1.0092,-1.4,234.15,-17.64,545,12
-0.4587,0.2957,1.0258,-44.66,343.84,-52.71,325,26
-1.4098,-0.2323,1.0028,-39.83,424.48,-65.87,77,15
-2.6259,0.4568,1.0731,37.66,324.52,-97.86,6,15
-0.6681,0.4451,2.3253,-34.44,78.12,-64.75,16,13
0.4211,0.5836,1.179,-41.79,-103.6,-49.84,13,16
0.0996,0.2542,0.876,20.51,-150.99,2.8,9,14
-0.4612,0.3416,0.8408,6.09,-220.01,51.73,8,14
-0.6256,0.0307,0.7642,42.56,-262.78,66.08,12,11
-1.0443,0.0917,0.8808,56.07,-284.13,56.14,7,7
-1.2034,0.0913,0.8228,70.84,-286.65,55.93,3,13
-1.2273,0.2313,0.9609,60.27,-258.51,77.28,7,6
-1.6416,0.1884,1.1326,46.97,-245.91,111.51,6,4
-1.7148,-0.1484,0.9994,64.26,-227.22,132.3,3,16
-1.9593,0.0342,0.4758,63.07,-223.51,116.34,12,14
-2.1238,-0.7945,-0.4812,70.07,-154.98,14.07,10,13
-1.7758,0.2991,-1.2761,83.72,17.64,-23.66,7,12
-1.5782,0.1362,1.5562,-200.69,130.2,-27.79,7,303
-1.6553,-1.0707,1.8119,-115.22,225.54,-1.47,8,777
-1.3552,-0.0459,0.7149,95.06,144.2,-52.64,10,1012
-0.0498,0.7086,1.2873,-325.08,57.68,-5.95,10,1007
-0.5963,-0.3938,0.8311,105.84,11.9,-5.46,8,983
-0.5061,-0.062,0.8462,-79.8,9.45,-8.05,4,875
-0.59,0.3509,0.8355,12.88,13.02,-8.4,7,708
-0.6012,0.0839,0.8115,-12.88,11.41,-11.27,7,565
-0.5958,0.1274,0.8403,-15.12,6.37,-8.75,7,450
-0.5832,0.1566,0.8413,-7.98,7.49,-7.49,43,307
-0.6027,0.1166,0.8228,-5.67,10.78,-8.19,108,126
-0.6051,0.1347,0.8237,-1.54,11.27,-9.31,183,36
-0.5812,0.1059,0.8403,1.26,17.85,-9.8,260,32
-0.5915,0.0898,0.8491,3.85,30.17,-8.33,348,30
-0.5822,0.1606,0.8794,-0.56,48.44,-13.86,449,29
-0.5612,0.1191,0.9414,-0.91,78.89,-16.38,535,25
-0.4856,0.1786,1.0394,12.67,138.32,-15.68,596,20
-0.203,0.3377,1.179,18.76,281.75,-52.85,512,19
-1.2664,0.2098,1.0194,-38.36,345.73,-71.75,194,13
-1.869,0.2103,1.1566,17.78,270.41,-55.58,11,12
-0.2264,0.8808,1.769,6.51,80.08,-49,11,12
0.203,0.5417,1.5967,7.56,-84,-37.94,5,18
-0.0425,0.286,1.0033,6.44,-150.29,29.12,9,16
-0.4031,0.1693,0.9106,23.31,-193.83,68.53,11,20
-0.814,0.1283,1.0199,34.02,-221.69,57.54,10,11
-0.9711,0.1093,0.9765,51.8,-226.45,35.7,16,16
-0.9155,0.1776,0.954,45.57,-194.25,33.18,7,13
-0.9272,0.2172,0.956,12.46,-160.37,40.74,8,17
-1.1097,0.0068,0.9565,2.1,-133.7,36.68,8,8
-1.2488,-0.0508,0.8696,25.9,-118.72,47.32,6,13
-1.4469,-0.0137,0.6934,56.07,-135.17,62.16,6,11
-0.9267,-0.0698,0.407,52.64,-129.92,30.66,8,9
-1.1902,-0.1108,0.3894,60.41,-97.16,-13.02,8,7
-1.0624,0.06,0.1527,59.22,-77.42,-20.23,4,7
-1.2532,0.0112,-0.0961,31.29,-33.39,3.01,3,14
-2.0725,-0.0395,-1.0311,-247.52,117.11,-56.91,5,50
-0.9389,0.7676,1.0526,90.37,201.04,-30.17,12,564
-1.4118,-0.6383,1.2961,-3.36,115.15,-42.28,3,957
-1.1307,1.5431,0.9628,34.09,56.77,-38.01,12,978
-0.7144,-0.3479,0.8145,-53.97,20.44,-15.96,8,967
-0.6525,0.2943,0.8974,-34.02,10.99,-8.19,10,916
-0.5793,0.0273,0.8569,9.1,12.6,4.62,9,812
-0.5905,0.1806,0.8286,-15.19,10.85,-1.12,8,650
-0.6173,0.1332,0.8291,-8.54,7.63,-0.98,8,577
-0.6027,0.1479,0.8106,-8.33,5.04,-2.8,4,495
-0.61,0.1191,0.8072,-9.52,0.98,-4.76,14,448
-0.5724,0.2206,0.8394,-4.83,2.59,-10.36,19,382
-0.5778,0.1161,0.8276,-7.35,3.29,-13.3,49,283
-0.5656,0.1591,0.8623,-11.9,9.17,-16.1,99,150
-0.5675,0.1191,0.8769,-2.66,21.49,-17.99,219,38
-0.5934,0.0239,0.8755,7.42,39.27,-12.95,339,27
-0.57,0.1464,0.9209,5.53,63.35,-15.75,459,22
-0.5041,0.1762,1.016,9.66,111.09,-17.92,530,29
-0.4582,0.1161,0.9848,18.34,192.92,-38.71,571,21
-0.5202,0.3509,0.9716,-26.25,289.24,-65.38,393,20
-1.6324,0.185,1.0385,-76.02,315.49,-98.14,80,24
-2.1648,0.3401,1.484,-35.28,264.18,-113.4,7,12
-0.3274,0.3528,1.6333,-103.18,158.62,-44.59,12,14
-0.0317,0.283,1.7226,-63.35,31.99,20.02,10,11
-0.0073,0.4207,1.5387,14.14,-101.78,19.81,10,14
-0.2786,0.307,1.1858,21.56,-201.11,36.82,11,7
-0.5373,0.2264,1.0024,41.86,-258.09,70.07,12,16
-0.9433,0.2084,1.0346,49.35,-297.71,83.3,5,16
-1.0946,0.0844,1.0385,55.51,-308.49,75.25,9,14
-1.2444,0.2996,1.1585,52.43,-280.84,72.17,9,13
-2.0911,0.3841,1.3723,66.29,-288.47,113.47,6,8
-1.8036,0.0376,0.9477,64.89,-282.52,145.95,7,7
-2.196,-0.2694,0.0444,90.65,-239.4,95.13,8,11
-2.6952,-1.24,-1.6856,161.42,-77.77,41.09,9,14
-0.6817,1.546,0.3182,-33.74,136.36,-21.28,8,11
0.325,-0.8345,1.0536,-26.04,404.32,-88.13,5,700
-1.8032,-0.3587,1.2117,-24.71,162.54,-64.19,6,1170
-2.094,1.117,1.2044,-104.44,56.49,-35.35,7,1172
-0.8096,0.0073,0.8784,26.53,23.94,-19.46,3,1033
-0.6324,-0.0346,0.8686,-22.68,17.15,-8.75,10,870
-0.6115,0.0991,0.8203,-19.39,17.01,-3.5,1,664
-0.6066,0.2108,0.814,-23.73,18.83,-1.75,7,429
-0.6295,0.1449,0.791,-13.58,13.44,-4.55,11,297
-0.631,0.1684,0.7954,-14.49,10.85,-6.58,45,191
-0.612,0.1698,0.8067,-5.6,13.79,-7.91,108,72
-0.6149,0.1532,0.8179,-5.67,21.07,-10.57,227,22
-0.6193,0.1396,0.8311,-1.54,35.84,-12.04,304,20
-0.6095,0.0903,0.8667,15.61,59.22,-12.04,413,20
-0.6163,0.1157,0.8974,18.69,86.45,-13.79,511,17
-0.5768,0.1322,0.914,14.42,130.97,-11.34,560,17
-0.57,0.3148,0.9248,6.23,195.16,-20.3,579,17
-0.5017,0.3723,1.056,-68.18,321.3,-55.44,369,15
-1.6289,0.1074,1.1287,-3.29,438.2,-65.17,87,14
-2.7465,0.3836,1.1595,59.78,332.36,-78.96,12,17
-1.0868,0.6178,2.0198,-34.16,57.4,-73.15,9,7
0.3977,0.1527,1.3845,-14.07,-103.81,-71.61,12,16
-0.0854,0.3338,0.995,29.89,-187.95,3.43,15,16
-0.4026,0.3206,0.7818,2.17,-262.78,62.37,12,15
-0.7349,0.0381,0.7452,53.97,-287.14,83.37,14,7
-1.0009,-0.1542,0.852,66.36,-316.96,52.57,13,17
-1.2644,0.0922,0.8335,103.25,-318.5,27.72,7,14
-1.3,0.3528,0.955,67.34,-283.08,38.71,3,12
-1.7275,0.286,1.1102,60.83,-249.76,84,7,9
-1.9003,-0.0947,1.0819,134.54,-226.73,170.8,11,9
-2.8514,-0.4636,0.0903,72.31,-207.06,153.44,5,11
-2.3751,-1.0468,-1.5948,47.81,-69.51,53.69,9,4
-0.4675,0.3548,-0.692,-260.61,183.33,-85.47,4,194
-0.265,-0.181,1.4425,-124.88,278.32,-6.79,11,703
-1.343,-0.551,0.9457,25.34,114.94,-31.29,8,981
-0.7998,1.2581,0.8638,-71.54,23.73,-35,3,956
-0.5973,-0.4831,0.873,8.54,6.16,-14.07,4,962
-0.5646,0.3987,0.8823,-51.03,3.78,-11.27,10,926
-0.5622,0.202,0.8682,4.34,5.74,-7.42,12,837
-0.5836,0.1762,0.8169,-19.74,1.54,-11.34,3,716
-0.6085,0.0556,0.8555,-17.5,-2.66,-7.63,8,618
-0.5758,0.203,0.8555,-6.93,-3.15,-6.23,7,510
-0.5602,0.1649,0.8618,-2.66,0.63,-8.82,52,363
-0.5685,0.102,0.8569,-5.11,11.13,-10.92,141,146
-0.5456,0.1215,0.8857,-0.77,23.31,-13.79,234,33
-0.5319,0.0756,0.8989,1.33,41.58,-11.34,368,28
-0.5685,0.1054,0.8994,-0.63,66.78,-7.98,475,25
-0.5295,0.1703,0.9482,1.82,102.83,-15.96,573,23
-0.4963,0.1586,1.0194,0.49,175.77,-18.06,627,15
-0.466,0.5183,1.0585,-17.29,282.03,-60.41,563,15
-0.8364,0.3431,1.0302,-95.62,414.19,-121.38,231,12
-2.2145,0.4407,1.0487,-11.9,376.32,-114.24,17,16
-1.6543,0.4085,1.1414,-17.22,212.59,-121.38,9,15
-0.1986,0.7247,1.6982,6.86,-38.78,-24.57,7,9
0.1366,0.1035,0.9443,-14.49,-76.09,3.01,9,17
-0.2728,0.5563,0.8408,-12.88,-144.13,39.83,6,14
-0.5236,0.0893,0.8359,6.65,-200.69,73.08,11,16
-0.734,0.1825,0.8369,25.41,-248.78,76.65,17,17
-1.0668,0.124,0.8506,41.02,-274.54,71.82,14,15
-1.0712,0.1962,0.834,55.09,-277.48,66.5,15,16
-1.2195,0.3333,1.0106,48.58,-251.86,76.65,7,10
-1.4147,0.3216,1.1746,33.32,-226.38,104.23,8,6
-2.2292,0.1752,1.2093,44.38,-234.64,138.53,3,5
-2.0028,-0.1386,0.3977,53.62,-241.43,128.1,10,7
-2.625,-1.3957,-1.3386,110.6,-168.14,60.9,5,9
-1.8359,0.3933,-1.0697,24.29,56.77,-22.68,7,16
-1.303,-0.0015,1.6865,-225.82,175.77,-87.22,12,364
-3.2398,-1.2259,2.0872,-129.15,233.94,-53.48,3,942
-2.0193,0.9867,0.6891,263.13,110.18,-65.17,11,1052
-0.8194,-0.7793,0.4797,-95.76,12.95,-21.7,7,1023
-0.589,0.4124,0.9335,-44.31,6.93,-11.13,4,924
-0.6032,0.1259,0.8623,14.91,9.45,-3.29,3,742
-0.6188,0.1288,0.8301,3.99,8.19,4.2,8,526
-0.6012,0.1806,0.812,-9.03,9.94,0.28,20,332
-0.5954,0.1259,0.8115,-9.31,9.52,-4.13,61,139
-0.609,0.1308,0.8057,2.03,8.82,-6.16,144,31
-0.5988,0.1362,0.8223,1.33,10.01,-10.64,232,19
-0.5832,0.0996,0.8589,4.69,23.59,-10.64,344,22
-0.5671,0.1093,0.8813,2.1,48.51,-9.73,445,18
-0.569,0.1449,0.915,8.96,78.47,-13.16,534,16
-0.5553,0.0937,0.9277,1.61,122.15,-15.68,605,19
-0.5295,0.2611,0.9418,5.39,185.71,-18.62,624,18
-0.4329,0.4192,1.015,-21.21,290.43,-54.6,497,22
-1.2151,-0.0473,1.2122,-88.13,417.48,-74.83,168,13
-2.6269,-0.0532,1.4172,65.45,410.48,-60.13,21,14
-1.0058,0.733,1.9242,-23.94,67.9,-82.81,12,14
0.2054,-0.1484,1.2293,13.93,-66.92,-56.35,18,10
-0.0966,0.6329,0.9819,36.68,-146.09,27.51,10,9
-0.5104,0.1459,0.914,22.33,-227.78,93.94,12,10
-0.5163,-0.0605,0.8213,44.31,-265.79,96.53,14,10
-0.956,-0.0712,0.9233,64.54,-292.32,65.66,16,7
-1.0951,0.0166,0.9443,71.4,-307.02,46.48,13,9
-1.3381,0.1757,1.1639,54.25,-295.05,45.64,3,11
-1.7197,0.2347,1.2971,36.4,-285.25,56.21,9,6
-2.4117,-0.0844,1.0302,79.73,-281.12,93.1,7,1
-2.3966,-0.3211,-0.0917,105.56,-249.69,98.7,8,12
-2.4581,-1.4376,-2.055,195.72,-91.21,37.59,9,10
-3.2023,1.5528,-0.8891,-86.38,119,-128.87,7,11
1.4928,-1.1268,1.6084,42.07,251.93,-25.41,6,535
-1.8168,-0.7945,1.7783,-66.64,164.99,-91,12,945
-2.2707,1.6119,1.2644,131.46,89.18,-60.76,12,1022
-0.9819,-0.853,0.7183,8.33,14,-19.81,7,990
-0.6403,0.0508,0.8638,-47.53,4.55,-8.33,6,903
-0.6149,0.0932,0.8496,-6.93,7.07,-0.63,2,728
-0.6115,0.1674,0.8076,-6.93,6.72,2.17,24,520
-0.6773,0.1386,0.7535,-11.41,-2.31,-2.52,46,372
-0.5861,0.0786,0.8247,-8.89,2.66,-3.99,104,260
-0.6056,0.1044,0.8096,-0.7,4.62,-5.46,160,104
-0.5978,0.1405,0.8306,-0.98,4.62,-8.89,238,33
-0.5807,0.1074,0.8623,5.04,15.89,-8.68,335,23
-0.5754,0.1054,0.8779,8.19,34.23,-7.91,431,20
-0.5427,0.0981,0.9213,3.36,62.51,-9.66,525,22
-0.528,0.1313,0.9594,2.38,104.37,-11.48,599,15
-0.5475,0.2259,0.9228,2.66,161.42,-15.4,641,18
-0.509,0.2904,0.9697,-5.53,238.07,-36.19,588,17
-0.5822,0.1684,1.0853,-53.34,359.03,-72.1,328,22
-1.8993,0.0371,1.0463,29.54,410.06,-54.32,52,11
-2.2834,0.1801,1.1502,90.3,281.12,-72.73,22,15
-1.2322,0.5846,2.0964,21.07,17.5,-80.64,13,7
0.2518,0.083,1.2439,45.43,-85.33,-42.42,11,12
-0.1801,0.4387,1.0024,47.39,-145.39,50.33,14,15
-0.5119,-0.0937,0.9882,30.73,-218.12,106.4,16,13
-0.6725,-0.2948,0.9306,86.03,-263.62,93.03,11,9
-1.1771,-0.326,0.9955,91.63,-310.73,33.11,16,14
-1.2215,-0.1113,1.0287,92.26,-315.28,9.45,18,9
-1.4801,0.0864,1.2586,72.31,-303.24,15.61,15,7
-2.0525,-0.1083,1.2439,96.46,-293.79,62.02,13,13
-2.1765,-0.0834,0.3309,87.85,-266.7,105.56,12,11
-2.6972,-1.4801,-1.4323,56.49,-136.08,63.98,5,6
-1.2976,-0.1025,-1.5601,-65.17,89.18,-67.06,6,12
-2.1057,0.8774,1.4206,-167.86,118.79,-85.33,11,258
-2.2555,-0.1776,1.5504,-63.56,226.94,-45.08,6,814
-2.0418,0.956,1.218,200.62,71.54,-48.37,4,962
-0.9184,-0.4773,0.6744,-0.91,4.2,-18.13,10,951
-0.5788,0.1806,0.8438,-28.35,3.43,-6.72,4,910
-0.5871,0.1322,0.8579,-2.87,1.82,-1.96,2,809
-0.5685,0.1542,0.8589,-5.18,3.29,3.71,7,660
-0.5719,0.181,0.8203,-10.43,5.6,1.96,16,510
-0.5729,0.121,0.8316,-7.98,5.18,0.14,31,412
-0.5915,0.1542,0.8179,-3.01,5.39,-2.52,87,279
-0.5958,0.1596,0.8159,-2.66,2.45,-7.7,162,157
-0.5817,0.124,0.8442,0.63,7.84,-10.29,233,54
-0.5529,0.1259,0.8833,8.68,24.36,-10.43,367,25
-0.5451,0.1191,0.9067,0.21,49.7,-9.31,481,25
-0.5402,0.1025,0.9223,0.35,88.06,-11.2,579,21
-0.549,0.1357,0.9423,0.49,133.07,-14.21,645,20
-0.5095,0.2904,0.9721,-10.57,197.82,-38.29,660,17
-0.4631,0.2518,0.9799,-49.42,297.71,-76.23,492,13
-1.4479,-0.3231,1.178,-64.61,409.85,-92.26,121,15
-2.6025,0.2704,1.4059,44.03,356.93,-94.64,10,7
-0.9809,0.8111,2.1399,71.4,84.7,-68.88,7,12
0.4602,0.3133,1.1756,22.19,-91.14,-33.39,12,14
-0.0508,0.3231,0.9565,66.92,-142.45,72.8,11,14
-0.3792,-0.2098,0.9106,35.56,-220.01,125.79,7,13
-0.7037,-0.2577,0.9194,94.57,-268.17,105.63,13,16
-1.1004,-0.2625,0.9618,94.92,-295.26,56.14,15,14
-1.1302,-0.2216,0.998,83.51,-291.97,38.29,12,12
-1.3884,0.0488,1.2151,59.15,-271.11,36.19,7,12
-1.8271,-0.0932,1.3283,65.03,-272.44,43.12,8,13
-1.7265,-0.771,0.3797,7.63,-231.35,10.57,9,7
-2.0667,-0.8106,-1.1527,102.13,-160.37,9.38,13,7
-1.6704,0.0049,-0.1122,48.02,40.25,-85.61,8,7
-0.3255,-1.1336,1.4362,-154,127.26,-93.17,9,347
-2.7704,-0.0932,1.8793,-161,202.23,-39.76,11,843
-2.133,0.5036,1.0912,203.07,68.53,-35.07,0,984
-0.8247,-0.326,0.8408,-15.89,5.11,-14.49,7,977
-0.5739,0.1884,0.8642,-26.32,3.15,-5.95,6,919
-0.5885,0.1293,0.8516,3.92,4.06,-0.98,6,791
-0.5846,0.1362,0.8423,-6.02,1.61,4.06,9,603
-0.5949,0.162,0.8164,-5.39,2.45,0.14,13,450
-0.5963,0.1342,0.8233,-6.93,1.54,-3.85,13,323
-0.5832,0.0961,0.834,-5.32,3.85,-3.85,52,205
-0.5885,0.1283,0.8374,-3.01,8.82,-4.76,115,79
-0.5929,0.1054,0.8301,1.19,14.84,-5.53,164,29
-0.5876,0.1332,0.8418,7.63,26.74,-5.39,239,24
-0.5563,0.1225,0.8735,8.4,45.57,-7.28,356,19
-0.5358,0.1049,0.9628,-0.98,82.25,-7.77,455,15
-0.5373,0.1454,0.9423,6.79,133.49,-8.75,516,15
-0.509,0.203,0.9731,-5.39,200.55,-22.54,516,17
-0.283,0.2216,1.0609,-17.29,333.55,-49.42,320,16
-1.7553,-0.2318,1.0189,1.47,383.95,-15.33,64,14
-2.4376,0.0386,1.1273,125.37,293.58,-13.65,9,14
-0.5104,0.6783,2.2565,11.13,44.38,-86.66,15,15
0.2757,0.0595,1.4908,84.7,-85.47,-103.53,9,7
-0.0434,0.4031,1.137,53.9,-159.88,-28.14,16,11
-0.3972,0.1313,0.9926,55.44,-219.38,62.72,16,11
-0.7696,-0.0503,0.9989,58.87,-259.98,66.92,13,8
-0.9057,-0.0708,0.9892,62.37,-287.91,34.86,12,8
-1.0785,0.1176,1.0634,71.19,-274.26,24.43,7,10
-1.2878,0.2948,1.1927,42.49,-251.16,34.37,12,7
-1.9818,0.2743,1.1771,54.67,-264.6,70.42,9,5
-2.9187,-0.4197,0.5632,8.68,-204.12,89.46,9,8
-1.8895,-0.1884,-1.16,85.05,-192.29,88.69,7,7
-3.4072,1.5279,-2.2311,-12.39,74.83,-31.92,10,16
0.1952,-1.2673,2.6435,-46.62,287.63,-1.47,12,513
-1.8202,-1.0638,1.728,-128.03,157.29,-82.11,8,921
-1.5372,1.7173,1.0716,-119.77,9.45,-42.21,10,955
-0.6934,-0.0937,0.9843,45.92,-2.45,-17.43,5,938
-0.5973,-0.0722,0.8486,8.4,4.55,-5.32,6,801
-0.6066,0.0708,0.834,-10.64,4.83,0.28,23,617
-0.5954,0.1571,0.8316,-5.67,6.16,-1.19,47,420
-0.5861,0.123,0.8237,-5.39,11.27,-3.29,95,240
-0.5958,0.0981,0.8311,2.45,13.65,-3.01,147,61
-0.6129,0.1078,0.8135,2.31,16.38,-4.83,214,34
-0.5988,0.1332,0.8335,1.05,20.09,-7.28,297,28
-0.5963,0.1264,0.856,4.13,32.76,-9.24,398,24
-0.5817,0.0615,0.8969,3.15,55.93,-7.77,493,17
-0.5241,0.1684,0.9872,10.99,103.74,-12.67,583,19
-0.4885,0.1225,0.9775,3.92,170.52,-9.94,617,22
-0.4026,0.3826,1.0199,3.64,277.48,-32.06,533,12
-1.2034,0.202,1.0219,-49.7,419.93,-77.35,192,16
-2.5757,0.2499,1.3732,27.93,355.18,-90.58,16,16
-1.2405,0.9614,2.0047,44.03,129.22,-91.98,16,7
0.3074,0.8433,1.5216,3.43,-41.37,-91.84,11,12
0.1264,0.57,1.0931,51.94,-133.21,16.03,18,16
-0.3328,0.1835,0.9165,11.55,-183.96,106.19,10,7
-0.651,-0.0395,0.896,32.55,-243.18,107.73,11,7
-0.8906,-0.0776,0.8794,32.76,-268.94,76.72,15,11
-1.076,0.0922,0.9472,17.99,-265.16,49.98,16,11
-1.4713,0.2625,1.138,17.78,-273.14,54.11,8,7
-1.7256,0.3841,1.077,28.49,-270.2,79.24,14,16
-2.0101,0.0127,0.8838,72.17,-225.54,111.3,14,8
-2.3658,-0.2547,-0.0937,87.5,-210.84,99.12,7,10
-2.0418,-0.9038,-1.5074,122.64,-62.51,24.36,5,6
-2.115,0.2298,-1.0248,-287.28,156.73,-94.36,3,32
-1.1073,0.7198,1.0931,116.97,293.16,9.03,10,575
-1.3854,-0.9487,0.8965,-42.91,129.78,-63.7,2,927
-0.1015,0.5954,1.6719,-344.61,44.03,-24.43,8,964
-0.7169,0.307,0.8579,66.71,-3.36,-10.01,7,974
-0.591,-0.0459,0.8833,3.01,4.41,-4.9,0,878
-0.5754,0.0883,0.8408,-11.41,9.66,2.03,7,716
-0.5788,0.2001,0.8311,-8.4,13.16,0.84,10,521
-0.5983,0.1488,0.8179,-6.02,10.01,-2.59,25,387
-0.6085,0.1332,0.8184,-2.87,10.57,-3.01,66,271
-0.6139,0.1596,0.8091,-3.08,9.38,-6.79,112,149
-0.5968,0.1508,0.8316,-1.96,12.81,-10.57,224,49
-0.5963,0.1049,0.8535,2.52,24.15,-10.71,310,20
-0.5666,0.123,0.8852,9.73,43.61,-10.36,424,23
-0.5646,0.1039,0.9379,6.09,78.47,-14.07,520,24
-0.509,0.0503,0.9794,9.52,135.45,-14.49,604,20
-0.4294,0.2601,1.0404,9.59,218.12,-30.24,600,18
-0.2933,0.3753,1.0712,-42,354.55,-75.11,368,22
-1.9422,-0.0317,1.0458,-0.91,413.49,-81.34,71,18
-2.136,0.5578,1.0897,6.65,288.54,-122.78,6,13
-0.9082,0.1054,2.0145,-34.16,38.57,-85.61,12,20
0.1864,0.6847,1.2595,-23.73,-110.46,-57.61,16,15
0.0249,0.4353,0.8286,-8.47,-178.64,21.77,8,14
-0.6281,0.2211,0.7964,-0.49,-235.83,86.1,12,7
-0.8716,0.2938,0.7998,9.38,-274.12,82.53,12,14
-1.0634,0.1674,0.795,38.36,-280.84,74.2,15,11
-1.2859,0.3304,0.8891,39.2,-271.32,78.12,8,10
-1.6182,0.3997,1.0492,28,-275.17,107.52,11,12
-1.7949,0.3318,0.955,52.92,-276.71,146.51,11,12
-1.8812,0.3328,0.1303,61.32,-163.94,143.15,10,6
-1.6665,-0.3836,-0.6651,91.98,-137.13,70.14,6,5
-2.2951,0.7491,-1.2878,58.73,18.83,-15.33,3,7
0.2996,-0.7505,1.6475,-95.2,217.07,-17.01,7,408
-1.7919,-1.566,1.5601,-98.63,195.16,-25.27,9,759
-0.8569,0.8852,0.7364,73.57,144.2,-47.88,3,989
-0.7154,-0.3518,0.8057,-117.95,29.75,-26.32,5,1039
-0.6295,0.2323,0.8711,-29.33,13.37,-14.35,0,996
-0.591,0.1137,0.8525,8.19,15.05,-5.04,3,859
-0.59,0.1972,0.7998,-6.65,17.08,-5.39,6,660
-0.61,0.162,0.8076,-17.15,14.42,-7.14,8,496
-0.6222,0.1513,0.8072,-12.04,11.9,-6.93,33,363
-0.6305,0.1078,0.8013,-9.8,11.97,-8.05,88,233
-0.6222,0.1254,0.8164,-9.1,16.73,-10.99,176,84
-0.6232,0.1503,0.8145,-9.1,22.96,-18.55,296,29
-0.6017,0.0742,0.8486,-1.75,39.55,-18.55,445,25
-0.6246,0.0195,0.8789,7.42,65.31,-18.13,554,32
-0.6095,0.0771,0.9194,12.04,100.8,-18.55,656,25
-0.5695,0.2591,0.9399,10.08,156.45,-20.23,685,20
-0.4982,0.4748,0.9677,-16.24,258.37,-63.84,595,21
-1.7822,0.0224,1.1283,-97.44,345.8,-113.89,138,18
-2.6049,0.5275,1.4723,-22.47,259.14,-118.37,8,20
0.2987,0.774,1.8827,-59.85,65.1,-61.88,16,8
-0.0976,0.591,1.3405,-46.55,-90.23,2.87,7,10
-0.1908,0.4392,0.9989,-28.42,-168.56,71.33,16,12
-0.4734,0.264,0.8716,-9.59,-225.33,94.43,9,10
-0.9331,0.3509,0.895,0.21,-254.17,81.2,8,8
-1.0067,0.3626,0.8662,25.48,-268.8,72.59,11,12
-1.0741,0.406,0.9204,20.23,-248.5,78.75,15,6
-1.4045,0.5436,1.036,17.57,-244.79,116.62,10,7
-1.5738,0.3816,1.0092,22.61,-239.33,148.19,10,5
-1.6763,0.1786,0.7325,69.16,-222.74,160.93,10,10
-1.9925,-0.2216,-0.0117,60.34,-182.56,82.67,3,8
-2.2482,-0.55,-1.1097,128.45,-63.35,36.82,16,12
-1.8642,-0.0434,-0.4836,-68.67,73.15,14.21,7,7
0.0483,-0.9272,2.2594,-134.61,193.27,2.66,1,468
-2.5722,-1.0834,1.8739,-1.89,193.2,-53.69,5,878
-0.8818,1.1795,0.631,100.31,147.77,-41.16,11,1039
-0.6622,-0.4299,0.8189,-69.37,37.38,-29.89,11,1050
-0.7296,0.1625,0.8813,-38.22,7,-17.64,6,964
-0.6027,0.0893,0.8721,-3.29,9.66,-5.25,0,816
-0.6256,0.1435,0.8159,-10.99,12.88,-1.05,5,635
-0.6076,0.1688,0.7935,-10.92,7.56,-2.24,27,467
-0.6056,0.1118,0.8198,-9.59,6.58,-4.13,58,344
-0.6139,0.1279,0.8052,-3.99,9.73,-3.99,101,228
-0.6115,0.0971,0.8189,-6.16,9.94,-9.59,175,79
-0.6305,0.1191,0.8228,-7.14,20.65,-12.18,292,28
-0.5924,0.1083,0.8711,1.47,38.15,-14.42,414,28
-0.5651,0.0664,0.9648,1.89,70.21,-18.2,549,25
-0.5022,0.0781,1.017,1.75,136.57,-16.87,639,20
-0.4738,0.3123,1.0497,2.59,217.21,-37.38,667,15
-0.4094,0.632,1.1507,-57.05,357.07,-109.27,463,24
-1.8456,0.3094,1.222,-35.84,449.26,-136.15,45,20
-2.276,0.529,1.3303,-9.38,288.68,-161.21,14,13
-1.3152,0.448,2.176,40.25,-63.84,-34.51,15,10
0.3377,0.5754,1.0272,-48.93,-105.77,34.02,14,11
-0.1806,0.2957,0.8179,0.21,-169.89,78.82,11,13
-0.6564,0.2069,0.772,-9.1,-268.17,109.62,4,7
-0.8242,0.1932,0.7788,26.88,-291.69,97.09,7,17
-1.3054,0.1972,0.8408,40.25,-320.67,87.36,14,10
-1.3171,0.385,0.9272,37.1,-321.93,98.63,3,17
-1.7246,0.3421,1.161,43.26,-294.35,131.04,8,7
-2.1296,0.4329,1.0077,74.55,-287.35,163.24,11,9
-2.5644,-0.4494,0.4407,79.59,-226.73,153.37,12,10
-2.4327,-0.7042,-0.9628,112.84,-130.41,55.58,8,10
-1.9296,1.2088,-0.8896,-11.2,92.75,-48.37,7,10
2.1921,-0.9233,1.7836,120.26,283.92,-28.98,8,591
-1.5733,-0.4953,1.585,-20.3,145.88,-60.13,4,899
-1.2073,1.3781,0.8506,-26.18,134.12,-27.23,12,1121
-0.794,-0.3426,0.8281,-58.59,56.7,-30.87,7,1139
-0.7613,0.2279,0.976,-86.24,32.48,-21.98,7,1075
-0.6115,0.224,0.8896,-12.32,22.82,-11.97,4,957
-0.6588,0.1791,0.8413,-29.82,19.25,-10.22,14,813
-0.6046,0.1928,0.8228,-19.04,11.76,-9.31,7,688
-0.6017,0.1649,0.8247,-12.46,13.72,-6.09,3,581
-0.6251,0.1362,0.8164,-15.68,14.35,-7.28,2,443
-0.6315,0.1488,0.815,-14.77,13.44,-11.83,34,285
-0.6315,0.0678,0.8359,-1.26,15.05,-10.99,142,74
-0.6012,0.0893,0.856,9.66,25.06,-8.75,291,28
-0.5646,0.1459,0.937,12.6,49.56,-10.15,410,28
-0.5212,0.1035,1.0126,14.14,106.4,-12.18,525,27
-0.4992,0.3401,0.9745,14.35,187.11,-24.71,593,28
-0.4041,0.3543,0.9921,-13.09,303.38,-47.88,510,18
-1.1043,-0.1386,1.1097,-74.13,427.14,-45.78,193,15
-2.8021,0.1005,1.2542,64.26,408.87,-45.43,12,16
-0.8047,1.2561,1.666,109.41,150.5,-59.92,15,16
0.61,0.7398,1.5465,-78.47,-120.96,-68.32,3,8
-0.1684,0.2508,1.015,-10.57,-139.65,-23.73,7,11
-0.527,0.2591,0.876,-5.95,-254.8,23.94,12,15
-0.6446,0.2186,0.7037,38.99,-294.35,62.79,7,13
-1.1585,0.0971,0.8984,48.16,-313.04,59.57,11,15
-1.1248,0.3094,0.8335,81.76,-319.41,53.62,7,16
-1.1775,0.4914,1.0677,62.44,-263.13,81.2,16,15
-1.9413,0.4172,1.2942,55.65,-222.11,138.46,16,16
-2.1633,0.0332,0.4626,91.14,-275.66,171.29,10,12
-2.8143,-1.039,-1.1834,91.14,-158.62,77.7,3,12
-1.2512,2.1906,-1.3796,77.21,79.59,-5.53,12,10
-2.1711,-0.4875,1.3498,-382.9,144.41,-35.7,9,316
-1.6997,-0.9721,1.6045,-106.89,278.18,7.49,4,764
-0.996,0.69,0.388,136.57,153.79,-59.92,4,1004
-0.8506,-0.6486,0.7823,-257.6,22.61,-34.65,8,1030
-0.6808,0.5231,0.8496,18.48,4.97,-19.88,5,979
-0.6417,-0.0332,0.8721,12.81,7.35,-5.53,9,864
-0.609,0.1444,0.8242,-0.49,9.52,0,6,636
-0.5944,0.1781,0.8086,-7.28,6.72,-0.28,20,435
-0.6027,0.0971,0.813,-10.15,6.16,-3.29,64,277
-0.6027,0.1254,0.8203,-9.87,7.98,-5.67,112,104
-0.6207,0.1425,0.8135,-4.41,9.66,-8.12,208,31
-0.5944,0.1093,0.8408,4.9,16.24,-8.47,297,25
-0.5846,0.1196,0.8769,5.39,34.09,-9.8,395,26
-0.5305,0.0815,0.9672,6.44,75.74,-8.96,523,23
-0.4817,0.06,0.996,5.95,140.42,-12.39,597,27
-0.4831,0.2621,0.9892,6.09,217.98,-26.25,587,24
-0.446,0.4441,1.0809,-71.26,353.5,-71.26,391,15
-1.727,-0.2357,1.0521,-34.93,436.8,-79.94,72,17
-2.42,0.6071,1.1629,49.7,354.83,-126.98,13,16
-1.6782,0.4553,2.1282,-39.34,42,-72.73,8,7
0.5695,0.5754,1.1204,-29.12,-116.27,-33.46,10,15
-0.0122,0.1166,0.9428,26.53,-180.53,41.86,8,7
-0.5822,0.1635,0.8286,19.67,-257.04,90.09,16,8
-0.7096,0.0078,0.7452,34.37,-288.4,83.23,11,10
-1.0019,-0.0215,0.8584,64.05,-310.24,60.62,10,12
-1.2054,0.2342,0.9399,63,-310.38,55.09,12,16
-1.4918,0.448,1.198,42.77,-283.5,72.1,12,11
-2.6015,0.1932,1.1946,63.56,-290.29,118.51,8,7
-2.2433,0.2152,-0.2128,78.05,-217.56,136.08,0,7
-2.4049,-0.7549,-1.523,83.37,-123.48,87.99,5,10
-2.2009,1.0258,-1.689,-49.7,121.17,-69.65,6,6
0.4895,-0.2303,1.4977,107.38,234.71,-22.19,7,497
-1.8212,-0.8428,1.3547,-11.9,155.82,-71.68,5,882
-2.3444,1.6919,1.1375,24.29,67.62,-58.8,7,990
-0.6651,0.388,1.0917,47.74,5.6,-17.78,8,971
-0.6076,0.0625,0.8379,-9.38,4.83,-8.75,0,890
-0.6012,0.1,0.8516,-2.59,5.81,-2.1,9,751
-0.6022,0.1698,0.8394,-4.48,2.66,1.33,10,551
-0.5832,0.1298,0.8174,-6.09,1.96,-2.17,25,400
-0.5685,0.1366,0.8345,-7.56,4.9,-3.08,71,241
-0.5978,0.1166,0.8194,-0.98,4.9,-5.04,120,79
-0.588,0.1161,0.8311,-2.03,9.59,-7.7,198,32
-0.5827,0.1279,0.854,2.17,22.26,-8.26,300,26
-0.5622,0.1142,0.8813,3.92,37.1,-8.68,404,15
-0.5197,0.101,0.9706,17.01,77.91,-10.85,502,21
-0.5173,0.082,0.9906,1.75,135.1,-12.11,587,15
-0.4543,0.2562,1.0224,2.87,214.27,-29.82,606,19
-0.3953,0.3762,1.0858,-35.42,323.75,-66.15,472,19
-1.6997,-0.4577,1.1048,-31.92,440.58,-63.42,108,16
-2.6938,0.3723,1.0931,82.88,366.38,-82.6,6,19
-0.7788,1.6963,2.5161,-4.97,77.28,-63.49,15,8
0.5671,0.266,1.2771,-55.44,-109.48,-50.05,3,15
-0.1069,0.4163,0.9482,23.45,-171.78,10.85,12,8
-0.4436,0.1893,0.792,-14,-252.28,66.71,6,16
-0.6974,0.224,0.7393,36.68,-283.92,87.08,7,14
-1.1463,-0.002,0.8735,39.34,-301.98,68.53,8,12
-1.2639,0.2216,0.9004,70.28,-313.88,48.3,14,16
-1.5274,0.3992,1.1117,55.79,-294.98,58.03,11,12
-1.8598,0.4421,1.0824,77.7,-285.39,106.47,12,11
-2.2292,-0.083,0.5768,129.22,-224.42,154.7,3,7
-2.2477,-0.7086,-0.7447,72.52,-151.06,98.77,8,10
-1.9803,-0.4353,-1.2464,51.03,18.9,-6.3,16,7
-0.0781,-0.0078,0.1484,-413.84,173.81,-66.78,7,157
-1.9339,-0.7388,1.566,-105.63,261.1,18.9,8,650
-0.6603,0.1893,0.6871,79.8,140.56,-69.86,10,957
-1.8817,0.1157,1.0756,-184.87,59.22,-46.97,3,1041
-0.815,0.1498,0.8774,38.64,13.79,-19.81,5,1006
-0.5958,-0.0395,0.8613,-11.06,7.77,-5.25,6,930
-0.6037,0.1015,0.8311,-3.36,8.82,1.33,8,769
-0.6076,0.1781,0.8164,-6.02,6.51,-1.54,9,586
-0.6027,0.1327,0.815,-10.22,2.52,-3.22,11,451
-0.5973,0.1381,0.8189,-10.01,6.93,-3.01,32,299
-0.5778,0.1562,0.7862,-2.31,7.35,-6.02,98,116
-0.6037,0.1108,0.8203,0,11.62,-8.54,161,34
-0.6017,0.142,0.8452,7.35,21.42,-8.05,260,24
-0.5885,0.1059,0.8599,9.8,38.15,-8.26,378,25
-0.5158,0.1025,0.9965,1.68,82.53,-10.29,482,24
-0.4909,0.1366,0.9848,16.45,146.86,-10.5,540,23
-0.4914,0.3123,0.9994,-2.73,231.14,-34.44,563,16
-0.4436,0.3143,0.9931,-77.49,343.98,-67.97,367,20
-1.768,-0.3636,1.0282,-11.76,447.3,-57.75,74,13
-2.5112,0.283,1.1644,105.14,328.02,-75.53,15,12
-1.096,1.0341,1.9647,-20.86,43.33,-70.28,11,11
0.4553,0.1586,1.1727,-31.57,-116.76,-63.14,11,12
-0.2289,0.364,0.9262,29.61,-174.44,8.75,9,14
-0.3811,0.0839,0.793,-0.98,-245.56,65.87,12,7
-0.814,0.2494,0.7696,35.84,-280.28,77.49,6,10
-1.0102,-0.0571,0.8023,43.61,-294.21,58.94,14,12
-1.1395,0.2669,0.856,57.47,-285.6,55.3,11,9
-1.4923,0.3977,1.0731,39.27,-277.2,80.01,0,7
-1.9252,0.3157,1.1126,56.63,-275.1,120.75,7,7
-2.3429,-0.019,0.5378,102.69,-255.99,138.11,6,20
-2.3736,-0.8833,-0.9877,112,-159.46,92.19,8,10
-3.2262,0.182,-1.7744,29.26,25.34,-37.87,10,10
-0.7774,-1.2054,2.073,-93.24,167.3,-20.44,8,436
-2.4239,-1.0809,1.547,-66.01,183.05,-48.65,2,782
-1.6524,1.058,0.8228,127.47,132.58,-48.02,4,951
-0.652,-0.7154,0.6993,-102.27,21.35,-29.19,8,975
-0.6842,0.5139,0.9189,-21.98,5.18,-9.94,9,920
-0.6315,0.1449,0.8599,13.37,5.18,-6.51,0,788
-0.6222,0.1615,0.832,-8.75,2.94,-0.35,19,569
-0.6046,0.1342,0.8174,-5.74,-0.56,-1.75,48,418
-0.6095,0.1347,0.8135,-2.24,2.38,-3.85,104,232
-0.5856,0.122,0.8355,-1.89,7.35,-5.74,145,76
-0.6188,0.12,0.8154,1.68,14,-6.86,230,26
-0.6129,0.1205,0.8203,4.34,19.67,-7.28,316,20
-0.6071,0.1401,0.8442,2.87,28.7,-7.7,397,21
-0.57,0.0991,0.9165,-1.47,55.09,-9.52,496,19
-0.5007,0.0917,0.996,0.14,110.6,-10.85,592,17
-0.5187,0.3123,0.9575,5.46,184.73,-27.86,625,17
-0.3987,0.4851,1.0014,-29.47,312.62,-67.76,517,17
-1.3371,-0.1357,1.1107,-102.55,423.08,-78.19,165,14
-2.6752,0.1815,1.2727,30.24,402.08,-92.47,15,15
-1.0673,0.6642,1.1307,46.76,155.4,-100.8,13,13
0.4065,0.9472,1.138,-10.64,-90.86,-46.97,16,18
-0.0073,0.0752,0.8599,7.7,-136.57,27.93,15,9
-0.3714,0.1054,0.7471,9.73,-227.57,94.43,6,9
-0.5007,-0.0142,0.5617,68.11,-291.2,91.91,8,14
-1.0985,0.0078,0.6651,64.26,-297.78,55.09,5,11
-1.1273,0.1937,0.6495,43.54,-289.52,62.23,13,9
-1.3737,0.2904,0.752,1.12,-217.42,93.66,13,16
-1.5318,-0.1747,0.5236,15.33,-129.78,104.3,11,7
-1.748,-0.1854,0.161,44.52,-24.01,100.59,4,9
-2.0418,-0.0698,-0.2923,62.02,-26.32,85.12,4,10
-1.6577,-0.245,-0.5656,-2.94,26.18,-12.46,12,10
-1.4157,-0.2865,-0.6124,19.11,80.15,-58.87,7,7
-3.7083,1.4235,-0.2123,143.57,85.75,-152.39,6,8
1.9705,-3.986,-0.6505,118.72,-46.97,-11.55,12,7
-0.2191,-0.7852,0.8398,-131.95,-53.62,-8.82,126,8
-0.5773,0.1244,0.751,-41.58,-22.75,-6.23,230,16
-0.5832,0.1806,0.8618,12.39,3.08,2.66,303,7
-0.5954,0.1527,0.8301,13.16,12.81,1.05,340,7
-0.5822,0.1171,0.8623,5.74,24.5,-1.89,370,7
-0.6193,0.1142,0.8159,8.19,36.54,-1.05,391,12
-0.67,0.1391,0.753,3.71,36.26,-2.17,401,8
-0.6891,0.1635,0.7218,0.98,29.12,-6.93,411,7
-0.7052,0.12,0.7281,-3.57,22.61,-9.31,473,12
-0.6886,0.143,0.7627,-4.76,26.39,-9.24,530,7
-0.6812,0.1181,0.7818,-3.15,40.18,-9.94,592,12
-0.6837,0.1425,0.7813,-4.06,59.15,-10.92,643,7
-0.6442,0.1396,0.8286,-3.99,94.01,-10.92,668,8
-0.6398,0.1562,0.8745,-6.16,147.07,-13.16,624,0
-0.5295,0.3274,1.0053,4.97,280,-53.76,361,7
-2.0232,-0.0839,1.0185,-13.51,259.77,-58.52,32,7
-1.3703,0.2908,1.648,14.07,114.38,-46.34,21,8
0.3138,0.0229,1.7583,37.45,-51.66,-80.36,13,8
0.2176,0.4046,1.2537,34.3,-153.72,-50.4,13,8
-0.3514,0.2928,0.977,50.96,-200.41,41.79,18,13
-0.7666,0.183,0.9887,74.2,-217.42,44.87,12,10
-1.0131,0.102,0.997,69.37,-232.47,41.65,14,10
-1.0033,0.2479,0.9487,54.39,-205.94,48.37,12,8
-0.9272,0.2357,0.8096,17.92,-144.62,55.3,7,12
-0.9628,0.0561,0.6085,29.05,-61.39,70.7,10,7
-1.3615,0.0268,0.3514,46.48,22.96,90.23,9,9
-1.9256,0.0756,-0.063,43.05,46.41,95.27,9,8
-1.5113,-0.0942,-0.5139,11.69,25.76,69.23,11,3
-1.4791,-0.1776,-0.5573,-13.79,72.52,28.21,7,12
-7.2941,2.4722,-0.9658,38.01,-66.99,-252.91,12,7
2.4781,-3.1657,-0.9296,250.53,66.22,-24.71,12,3
-0.3416,-0.9321,1.1458,-260.33,-40.95,6.09,97,7
-0.7427,0.6993,0.7867,84.07,-7.84,7.35,172,3
-0.608,-0.1215,0.8013,3.5,-2.59,-3.64,243,4
-0.5915,0.0083,0.8316,-8.61,5.32,-0.56,307,5
-0.5822,0.12,0.8628,-2.38,13.86,0.7,335,7
-0.59,0.1498,0.8403,3.99,22.05,-1.47,369,3
-0.6295,0.0956,0.8042,4.48,24.36,-2.1,393,0
-0.632,0.1,0.7979,-0.07,26.81,-2.87,423,9
-0.65,0.1254,0.7842,-0.98,29.33,-6.44,477,3
-0.6539,0.1435,0.7842,0.7,34.3,-10.64,533,8
-0.6632,0.1293,0.7798,-1.54,42.84,-14.84,603,4
-0.6437,0.083,0.812,-3.15,62.51,-14.07,672,5
-0.6725,0.1352,0.7959,-6.72,87.01,-11.41,728,5
-0.6661,0.0937,0.7862,-9.03,123.55,-13.3,736,8
-0.6056,0.2079,0.9004,-11.83,181.65,-24.92,660,4
-1.035,0.4558,0.9565,-22.82,337.12,-72.66,257,8
-2.014,0.3362,1.242,28.91,263.06,-76.44,25,5
-0.673,0.8086,2.1955,12.39,57.82,-63.28,14,3
0.7061,0.5968,1.606,15.68,-99.4,-38.78,14,7
0.0527,0.3948,1.2015,26.11,-171.08,46.69,13,9
-0.4577,-0.0317,1.0116,40.25,-231.42,90.51,13,12
-0.9306,0.0268,1.016,47.74,-260.12,60.62,12,8
-1.1688,0.0834,0.9931,53.48,-270.27,46.41,18,9
-1.0907,0.1308,0.9296,45.29,-235.55,48.93,15,3
-0.7818,0.1591,0.6793,10.15,-140.07,41.93,20,10
-1.3074,-0.039,0.4973,55.09,-16.24,56.07,11,5
-2.4756,-0.0283,0.0386,71.54,42.07,69.72,9,4
-1.2869,-0.1932,-0.5944,23.66,8.89,32.2,6,8
-1.5801,-0.2679,-0.6066,59.08,84.84,-7.7,11,6
-1.3708,0.3279,-0.5402,14.49,86.24,-12.11,10,3
-4.3222,-2.2355,2.5366,-658,-151.55,-4.55,3,3
-0.0883,1.9017,0.8589,-85.89,-58.66,-12.11,42,4
-0.4934,-0.1064,1.0424,101.5,-15.33,5.32,110,9
-0.631,0.0015,0.7842,-50.05,-15.12,-4.97,162,28
-0.5827,0.1937,0.8633,-12.53,-1.75,-3.43,235,15
-0.5651,0.1527,0.8706,-6.16,7.14,-1.4,285,10
-0.5773,0.1415,0.854,6.51,20.93,-0.77,330,12
-0.6017,0.1093,0.8296,10.71,26.46,-1.82,363,8
-0.6242,0.121,0.8008,4.9,31.64,-3.64,389,8
-0.6554,0.1279,0.771,1.26,32.69,-6.02,432,2
-0.6627,0.1044,0.7725,-0.91,32.76,-6.79,471,8
-0.6617,0.12,0.7901,-3.15,40.04,-8.4,531,6
-0.6603,0.121,0.795,-2.38,55.65,-10.08,593,12
-0.6593,0.1376,0.812,-3.78,79.59,-14.84,659,11
-0.6383,0.0874,0.8072,-8.68,121.59,-15.54,693,5
-0.6354,0.2777,0.8408,-10.71,182.28,-27.79,659,8
-0.6237,0.3309,1.0433,-23.31,302.96,-75.11,319,8
-2.0594,0.1747,1.0555,11.34,274.19,-64.61,42,6
-1.5094,0.2674,1.626,-0.84,140.84,-57.19,15,9
-0.0791,0.2328,2.0237,60.34,-72.03,-53.83,15,8
0.1942,0.4094,1.2878,27.72,-151.62,8.12,12,5
-0.1688,0.185,0.997,30.66,-224.42,74.13,13,7
-0.8623,0.0893,1.0248,51.87,-239.61,73.22,13,0
-1.0106,0.0083,0.9609,35.56,-252.42,51.66,19,9
-1.1683,0.1132,0.9882,32.76,-218.12,41.16,15,7
-0.998,0.1093,0.7564,25.41,-145.25,39.69,14,6
-1.2268,0.0161,0.6246,47.53,-47.53,71.82,12,3
-1.8964,0.0908,0.2538,82.95,4.34,86.17,12,8
-2.0506,-0.2206,-0.4065,63.21,8.75,51.94,7,8
-1.2971,0.041,-0.7774,28.21,16.94,3.36,11,5
-1.3801,0.0015,-0.5353,10.36,86.24,-8.89,8,4
-0.9028,0.4978,-0.6539,-62.37,136.22,-12.67,11,14
1.9208,-7.6694,-0.9043,-228.69,-207.76,-93.03,60,4
-0.7671,-0.4348,1.465,-316.82,-96.18,-11.41,241,5
-0.2894,0.508,1.0477,-36.75,-1.05,2.8,317,3
-0.5139,0.1376,0.8691,-9.66,-4.27,-1.47,376,12
-0.5836,0.1044,0.8613,1.61,13.58,0.07,419,13
-0.6071,0.1352,0.854,7.14,23.66,2.31,454,1
-0.6178,0.1791,0.8316,7.14,31.57,-1.26,476,9
-0.6427,0.1459,0.7959,6.79,35.98,-3.15,499,3
-0.6744,0.1508,0.7369,2.17,37.24,-4.06,520,0
-0.6764,0.1371,0.752,2.66,39.48,-4.55,551,7
-0.6905,0.12,0.7276,0.28,45.01,-5.95,599,8
-0.6993,0.1293,0.7364,0.7,53.34,-7,640,10
-0.6964,0.1147,0.7364,-0.42,69.44,-9.31,696,6
-0.712,0.1488,0.7369,-4.06,96.32,-12.11,733,6
-0.692,0.1542,0.7657,-9.17,135.03,-17.92,746,3
-0.6651,0.2796,0.7769,-19.67,200.27,-33.88,684,6
-0.9155,0.2128,0.935,-50.61,305.9,-49.28,330,12
-1.5738,-0.0102,0.9716,29.47,364.28,-24.57,71,5
-2.4,0.0224,1.079,114.59,270.48,-35.35,26,10
-0.8999,0.3948,1.8822,48.16,20.51,-65.38,20,12
-0.1147,0.2103,1.2971,82.67,-101.29,-33.18,13,11
-0.3806,0.1562,1.0292,73.71,-208.18,61.6,5,5
-0.5783,-0.3533,0.8569,87.22,-286.65,100.8,19,9
-0.8013,-0.2572,0.8389,91.14,-296.31,41.23,16,8
-1.0843,-0.2528,0.9257,95.62,-313.46,3.29,10,9
-1.2224,-0.0327,1.0263,59.92,-298.2,-10.15,16,8
-1.503,0.1874,1.2,61.04,-273.98,18.9,18,9
-1.991,-0.1566,1.0799,99.47,-268.17,96.53,7,7
-1.9603,-0.0102,0.3333,71.19,-215.46,121.52,17,8
-2.52,-1.2844,-1.4142,80.78,-111.65,41.58,7,1
-1.9564,0.4299,-0.8242,23.03,59.29,-58.59,17,5
-1.9081,0.3865,1.5099,-386.68,82.25,-1.26,13,160
-2.0101,-1.1971,1.727,-48.23,238.7,17.22,9,708
-1.3967,-0.245,0.7876,175.98,106.47,-31.92,3,1028
-0.2547,0.4304,0.8501,-185.22,49.77,-17.99,5,1021
-0.5036,0.0878,0.7906,52.5,29.54,-21.07,11,960
-0.6964,-0.1303,0.8496,-35.7,11.41,-10.15,6,873
-0.5866,0.1781,0.8286,-10.71,14,-4.55,8,728
-0.5988,0.1649,0.8345,-18.9,9.94,-9.24,9,565
-0.5944,0.1264,0.8394,-2.59,5.53,-7.84,7,441
-0.5968,0.1342,0.8364,-1.19,6.23,-11.2,50,191
-0.5841,0.1103,0.8579,0.56,13.37,-13.44,143,19
-0.5666,0.0927,0.8672,12.46,29.75,-10.57,248,16
-0.5705,0.1581,0.8579,2.45,49.56,-7.63,360,15
-0.5778,0.1044,0.8969,-0.14,76.23,-10.78,471,14
-0.5388,0.1108,0.9379,-2.24,119.14,-7.07,562,15
-0.527,0.2191,0.9662,2.73,179.34,-9.38,595,12
-0.4143,0.2791,0.9609,-4.48,288.47,-48.65,535,22
-1.1453,0.0034,1.0555,-74.9,400.96,-50.47,219,12
-1.7685,0.1108,1.2356,175.91,228.9,-39.97,14,16
-0.7608,0.4709,1.8812,80.85,-110.6,-95.48,9,10
0.1264,0.1776,0.9623,51.17,-131.11,-55.86,14,8
-0.6266,0.2743,0.9579,18.97,-231.7,66.15,3,11
-0.5036,-0.2708,0.7808,20.65,-274.26,97.02,11,12
-0.9428,-0.1493,0.8472,81.06,-296.87,43.05,12,12
-1.0765,-0.183,0.8477,79.8,-306.39,-14.63,0,8
-1.2112,0.1205,1.0024,74.76,-282.66,-17.78,12,12
-1.5284,0.203,1.1185,89.11,-254.1,21.49,9,7
-2.2507,0.0859,0.8969,105.7,-246.33,95.2,12,9
-1.9852,0.0883,0.0644,65.31,-237.72,134.4,8,6
-2.5147,-1.342,-1.5631,84.42,-93.8,71.19,4,7
-1.8158,0.3348,-0.5549,-32.27,94.43,-32.76,8,10
0.4177,-0.4046,1.4479,-274.26,120.05,53.76,5,280
-1.5743,-0.2064,1.7631,-79.8,214.76,13.3,8,638
-1.1102,-0.1435,0.6564,151.76,119.98,-43.96,8,888
-0.5446,0.4782,1.2078,-295.12,57.4,-27.16,7,912
-0.6944,-0.0259,0.9526,54.46,1.82,-17.99,2,924
-0.5861,0.0054,0.8599,-4.76,2.24,-4.9,3,869
-0.591,0.1259,0.8398,-2.17,0.56,1.19,10,730
-0.5856,0.1225,0.8252,-5.32,-4.41,-0.91,7,582
-0.5588,0.1122,0.8584,-7.7,0.7,-1.89,19,452
-0.5685,0.1449,0.8413,-3.43,6.72,-2.52,58,304
-0.5597,0.1713,0.8398,0.77,5.88,-8.05,124,119
-0.5573,0.1044,0.8696,1.54,14,-12.39,231,32
-0.549,0.082,0.8877,5.04,35.07,-10.43,337,22
-0.5588,0.1352,0.8921,3.36,54.04,-9.66,453,23
-0.5251,0.1098,0.9487,4.55,93.52,-12.32,574,22
-0.529,0.0254,0.9516,-1.89,142.38,-8.75,633,19
-0.4377,0.3001,1.0204,1.82,240.24,-32.13,609,15
-0.4719,0.4465,1.0516,-62.79,374.99,-77.49,355,15
-1.9583,-0.0464,1.0687,20.93,448.84,-66.5,47,18
-2.5083,0.2786,1.4855,57.19,297.43,-114.17,6,17
-1.9823,-0.2216,2.0803,84.91,-64.4,-64.75,13,13
0.3699,0.7213,0.9384,6.93,-115.08,-39.34,13,18
-0.3143,0.1313,0.8496,22.75,-179.62,49.14,14,13
-0.5456,0.0307,0.7842,23.1,-256.69,104.23,10,14
-0.6529,-0.0917,0.7647,62.09,-284.97,87.36,6,11
-1.1492,-0.1313,0.9082,90.09,-301.21,49,8,13
-1.3479,0.0922,1.0004,87.01,-325.64,42.98,9,16
-1.4767,0.286,1.2322,71.68,-305.41,61.39,8,13
-2.2877,0.2064,1.1209,90.09,-301.98,111.23,9,12
-1.9993,-0.0044,0.1337,91.42,-234.5,132.44,5,7
-2.7509,-1.1244,-1.587,73.64,-83.86,70.28,8,13
-1.9081,-0.0249,-0.6256,-49.28,86.03,-25.76,7,11
-0.7056,-0.4885,1.9144,-356.09,117.04,25.9,7,348
-2.3361,-0.6705,1.9823,-50.61,242.55,1.05,8,804
-1.889,1.2122,0.8115,213.57,148.12,-49.49,5,1007
-0.7769,-0.6398,0.5187,-156.1,22.19,-25.69,1,1023
-0.57,0.568,0.9165,-24.01,4.9,-10.29,3,988
-0.5924,0.2015,0.8906,-6.93,7.7,-0.84,12,891
-0.6076,0.1986,0.8106,0.35,2.66,1.96,8,721
-0.59,0.1649,0.8233,-15.47,-7.98,0.42,9,566
-0.5539,0.083,0.8511,-7.91,-3.57,0.56,8,465
-0.5695,0.1196,0.8335,-4.27,0.7,-1.05,36,383
-0.5773,0.1366,0.8389,-7.28,-0.35,-5.67,85,295
-0.5485,0.1322,0.8545,-3.43,5.11,-11.55,169,144
-0.5451,0.0996,0.8896,4.27,23.31,-14.14,313,26
-0.5368,0.1332,0.9184,2.8,49.42,-13.93,447,17
-0.5051,0.1484,0.974,-7.63,89.67,-16.38,578,26
-0.4865,0.0937,0.995,-2.38,145.53,-14.21,663,24
-0.4221,0.2333,1.0673,18.48,241.78,-29.82,630,24
-0.4221,0.3206,1.0565,-45.64,374.5,-70.7,359,22
-1.8046,-0.4421,1.1131,-5.11,441.63,-52.78,63,11
-2.4058,0.6076,1.2678,52.71,332.57,-120.19,15,14
-1.4108,0.0825,1.9076,-71.19,77.35,-84.14,16,7
0.4934,0.4846,0.874,23.17,-119.07,-29.75,16,18
-0.1942,0.3055,0.8447,31.78,-166.95,37.1,17,12
-0.5446,0.0786,0.7725,24.29,-253.89,96.25,3,12
-0.5963,-0.1493,0.794,57.75,-273.7,99.33,14,10
-1.2102,-0.242,0.9701,109.83,-311.29,59.29,9,7
-1.3547,0.0703,0.9545,113.05,-331.66,20.02,4,6
-1.5514,0.2889,1.1629,81.62,-315.21,30.38,7,6
-2.134,0.2362,1.1683,90.3,-298.2,94.64,10,10
-2.2092,0.0405,0.3416,134.33,-244.02,183.54,7,9
-2.785,-1.3947,-1.4957,-19.25,-105.28,124.46,9,7
-2.0696,-0.0659,-0.8257,-24.71,87.08,-35.42,8,11
1.7373,-0.5451,2.0403,-159.74,186.9,-36.75,8,419
-2.4176,-0.307,1.8617,-41.51,208.74,-25.2,7,830
-1.017,0.9809,0.5763,183.61,132.86,-31.78,8,978
-0.7579,-0.4968,0.6671,-251.23,17.5,-24.71,3,983
-0.5929,0.5134,0.8804,17.78,4.97,-14.35,10,968
-0.6115,0.0244,0.8667,14.49,3.43,-3.5,6,894
-0.5919,0.0893,0.8174,5.39,3.01,1.33,8,756
-0.591,0.1542,0.8194,-9.52,-7.14,0.77,7,609
-0.5617,0.1215,0.8608,-6.65,-3.85,0.49,7,519
-0.5685,0.1391,0.8374,-2.1,2.24,-0.56,17,435
-0.5841,0.1806,0.8247,-4.9,1.68,-4.48,56,320
-0.5788,0.1093,0.8418,-3.78,4.76,-7.28,120,175
-0.5588,0.1366,0.8638,2.73,16.24,-9.24,198,44
-0.5475,0.1298,0.8877,8.4,36.19,-10.36,329,15
-0.5246,0.1723,0.9462,4.27,64.05,-11.69,457,24
-0.5373,0.1039,0.9658,-0.49,110.25,-11.13,556,19
-0.4909,0.263,1.0111,10.36,171.5,-22.89,583,21
-0.4075,0.3074,1.0326,-9.45,282.45,-41.3,546,15
-0.8989,0.2489,1.0736,-74.2,409.92,-61.74,216,17
-1.9715,0.3606,1.0716,27.23,441.35,-62.51,25,12
-1.9427,0.3436,1.3376,72.8,274.12,-113.82,11,12
-1.3386,0.3606,2.1008,129.22,-113.4,-64.96,17,7
0.344,0.5636,0.8325,-58.94,-178.71,-14.56,16,11
-0.283,0.3196,0.7627,27.79,-203.98,60.06,5,7
-0.5915,0.1127,0.7462,-1.96,-261.1,106.68,16,14
-0.6759,-0.1152,0.7144,47.25,-307.86,91.63,10,13
-1.2595,0.0586,0.853,55.44,-308.35,43.47,8,15
-1.1078,0.164,0.9731,41.09,-260.61,49.42,8,10
-1.341,0.3289,0.7247,36.26,-165.13,40.95,12,8
-2.8114,0.081,0.4138,47.74,-77.7,93.59,6,12
-1.5679,-0.4475,-0.6124,49.14,-26.11,137.06,7,6
-2.2077,-0.103,-1.3742,7.49,18.55,40.74,5,11
-1.6895,-0.3289,-1.0731,30.38,130.83,-1.61,7,11
-1.4591,3.193,1.344,-658.56,65.59,-0.07,13,10
-0.7149,0.3479,0.7325,213.64,-56.49,-27.58,12,31
-0.6934,-0.122,0.6622,-18.06,-12.6,12.32,40,61
-0.5998,0.3963,0.7637,-26.32,-23.17,-10.85,89,136
-0.5788,0.1332,0.8603,-10.92,-2.59,-7.84,163,118
-0.5592,0.0664,0.875,-2.1,12.18,-2.17,215,21
-0.5788,0.1264,0.8652,8.96,27.3,-0.77,260,19
-0.6066,0.123,0.8306,10.22,34.93,-2.52,301,10
-0.6334,0.1196,0.7993,2.66,37.66,-5.67,339,16
-0.6559,0.1366,0.7647,5.88,40.25,-4.62,339,14
-0.6803,0.1215,0.7432,0.84,38.01,-6.23,411,11
-0.6793,0.1069,0.754,-2.1,39.41,-3.64,492,7
-0.6617,0.1161,0.795,-2.94,58.1,-9.66,592,10
-0.6324,0.1337,0.8389,-1.54,89.53,-15.89,670,7
-0.6159,0.0917,0.8384,-7.21,142.45,-15.33,727,9
-0.6403,0.2674,0.7813,-11.62,203.77,-29.47,704,12
-0.7876,0.2674,0.8433,-50.26,279.86,-54.81,454,16
-1.4591,0.0156,0.9326,-24.36,348.88,-56.77,127,7
-2.3497,0.1718,1.0902,40.95,314.79,-54.53,25,14
-0.7798,0.4738,1.5616,88.83,126.63,-55.65,11,11
0.2318,0.8233,1.4899,85.47,-105.21,-57.33,14,12
-0.1513,0.1893,0.9867,65.31,-203.7,-12.53,18,9
-0.3094,0.3143,0.7764,43.68,-259.07,53.06,18,5
-0.5104,0.0386,0.6373,60.69,-313.88,89.39,24,5
-0.7915,0.0517,0.8081,32.69,-296.52,80.85,16,5
-1.0458,0.2977,0.9111,27.79,-294.42,80.29,12,4
-1.4152,0.5309,0.9872,-27.86,-220.85,78.47,8,5
-1.3347,-0.0849,0.6495,-6.09,-112.07,101.29,9,3
-2.4976,-0.1035,0.1566,65.17,-8.61,143.78,10,8
-2.5962,-0.12,-1.0736,-23.31,-45.85,59.43,8,11
-1.9779,-0.5134,-1.1585,31.64,91.35,-54.67,7,10
-1.1483,-0.1166,-0.7042,44.94,156.87,-40.53,1,1
0.7837,-0.9194,1.1858,183.82,-41.65,-4.48,28,7
-0.5622,-0.2796,0.6842,-56.56,-2.38,-4.9,103,54
-0.6285,0.0625,0.815,-12.46,-3.85,-5.25,230,88
-0.5627,0.1322,0.852,-5.81,15.82,-0.56,296,29
-0.6295,0.0991,0.8364,-0.21,18.34,-0.91,360,7
-0.6115,0.1352,0.8398,7,41.09,-0.07,399,7
-0.6578,0.1928,0.7745,4.97,38.71,-2.66,419,9
-0.7003,0.1591,0.7178,0.91,33.39,-3.99,438,9
-0.712,0.141,0.7017,-3.92,24.92,-6.58,451,16
-0.6964,0.1142,0.7144,-4.83,21.91,-5.74,529,8
-0.6934,0.1396,0.7408,-2.87,32.34,-7.56,614,7
-0.693,0.1371,0.7696,5.32,49.77,-10.5,692,10
-0.6783,0.1542,0.8072,5.6,78.68,-17.92,747,8
-0.6471,0.1615,0.8438,2.1,121.52,-19.11,785,7
-0.6778,0.1688,0.7632,-14.84,179.34,-17.43,771,11
-0.5846,0.1991,0.7974,-48.93,248.36,-40.11,630,7
-1.3093,-0.2216,1.0014,-69.51,391.65,-20.37,223,7
-2.704,-0.1259,1.1004,65.24,362.25,-9.17,38,6
-1.625,0.3055,1.3225,141.96,160.23,-46.13,16,3
0.1288,0.731,1.6929,35.98,-145.46,-101.36,9,6
-0.0098,0.0766,1.0765,29.82,-186.76,-58.03,15,7
-0.3265,0.4128,0.7608,16.24,-288.68,-3.92,14,7
-0.4978,0.0639,0.6066,17.71,-311.99,23.24,10,6
-0.8628,0.4046,0.7349,19.32,-309.54,43.26,14,6
-1.0902,0.5495,0.7808,23.87,-294.84,83.72,14,9
-1.4362,0.5744,0.8701,-2.17,-244.79,153.72,16,16
-1.4606,0.2567,0.629,-38.15,-109.34,165.41,11,8
-2.3273,0.286,0.1288,71.89,-14.42,175.49,3,6
-2.3727,-0.5646,-1.2561,-60.13,-19.11,-0.07,5,5
-1.9091,-0.2674,-1.4703,37.94,98,-36.82,8,5
-1.3586,0.022,-0.6305,-51.38,156.1,-5.32,7,11
-0.1469,0.1118,1.1078,198.03,-120.89,-15.68,147,9
-0.612,-0.3338,0.7613,49,-9.24,-14.42,416,57
-0.5178,-0.2591,0.8086,5.11,25.83,-5.32,569,15
-0.6149,0.1381,0.8398,11.2,41.72,-1.75,659,8
-0.6744,0.1708,0.812,2.17,53.2,-8.68,731,5
-0.6769,0.0742,0.7945,8.4,68.04,-9.1,726,2
-0.7564,0.1083,0.6554,6.3,73.15,-7.98,698,9
-0.8291,0.1093,0.5422,5.04,53.34,-7.07,701,7
-0.8379,0.1244,0.5334,-0.21,30.17,-11.13,718,7
-0.8174,0.0742,0.5841,-1.96,17.22,-8.4,756,9
-0.7998,0.0586,0.6173,-0.98,16.31,-5.95,818,6
-0.7676,0.0742,0.6852,3.01,28.7,-2.03,875,3
-0.731,0.1083,0.7627,-0.21,61.39,-2.87,923,7
-0.6666,0.1801,0.8384,-9.73,118.58,-10.57,960,10
-0.5685,0.3806,0.8901,-32.06,202.93,-48.51,899,12
-0.8472,0.2874,0.978,-122.15,327.88,-88.41,449,7
-1.7968,0.0005,0.9506,-13.51,412.93,-60.2,126,12
-2.7777,0.4085,1.137,57.26,271.67,-85.82,45,10
-2.1531,0.124,2.095,24.99,-3.08,-53.69,25,7
0.0966,0.2962,1.1966,-0.35,-132.37,8.33,20,3
-0.184,0.1386,0.9311,28.35,-208.25,73.22,14,8
-0.4943,-0.0268,0.7261,10.85,-276.92,92.26,22,7
-0.793,-0.0068,0.7188,51.52,-291.27,71.19,24,8
-1.2058,-0.1508,0.7964,56.21,-319.41,51.31,12,4
-1.3293,0.1801,0.8808,44.1,-322.98,57.61,14,0
-1.8105,0.344,0.9706,37.59,-314.93,71.61,21,0
-2.1789,0.388,0.7676,53.34,-298.13,106.96,13,10
-1.9984,-0.102,0.203,103.46,-222.95,108.15,22,6
-2.2999,-0.4294,-0.6437,74.06,-122.57,54.25,21,8
-1.7436,-0.123,-0.8804,67.41,12.18,-3.64,13,8
-0.1357,1.3698,1.8061,81.06,68.11,15.4,18,3
1.2995,-0.6012,0.936,-70,269.57,-22.89,12,567
-1.2581,-0.4041,1.158,18.13,138.81,-69.37,13,1089
-1.6309,0.1332,0.975,-110.53,79.31,-43.75,8,1170
-0.852,0.185,0.875,-29.89,22.96,-22.33,4,1096
-0.6115,-0.0332,0.9052,-18.76,13.09,-6.51,0,940
-0.5612,0.1313,0.8169,-2.73,14.28,3.85,8,728
-0.5983,0.1688,0.7959,-10.78,15.12,2.94,4,560
-0.5973,0.1625,0.8067,-12.04,11.97,-1.19,6,459
-0.6183,0.1444,0.8042,-2.66,12.53,-3.78,13,363
-0.5993,0.1698,0.8237,-6.44,17.85,-8.96,72,229
-0.612,0.0781,0.8394,1.89,28.28,-8.61,192,36
-0.609,0.1269,0.8467,1.75,44.38,-10.71,340,18
-0.61,0.1152,0.8545,0.07,66.78,-10.71,466,16
-0.6105,0.0903,0.9062,8.54,99.61,-8.19,547,16
-0.6037,0.2216,0.8511,5.18,143.99,-10.5,580,15
-0.551,0.2318,0.8804,-3.85,206.64,-21.14,543,12
-0.4504,0.1391,1.0175,-37.1,320.46,-36.75,344,3
-1.7563,-0.2904,1.0214,40.6,420.49,0,88,13
-2.6298,0.0488,1.1668,191.24,313.88,-3.99,16,15
-0.875,0.9989,2.0999,-11.41,56.49,-98.98,13,10
0.225,0.2069,1.2629,31.85,-114.45,-117.88,15,14
-0.3006,0.3689,0.9872,3.08,-174.65,-41.51,16,11
-0.4421,0.1547,0.7993,-35.84,-245.49,41.37,16,7
-0.7823,0.1986,0.7613,-5.18,-281.19,55.51,18,7
-1.0331,0.0493,0.8486,27.58,-311.64,29.75,17,9
-1.239,0.2811,0.8638,65.8,-331.17,25.9,7,12
-1.3815,0.6061,1.0048,51.59,-299.88,58.66,8,10
-2.0823,0.4948,1.0731,58.31,-276.78,145.88,10,6
-2.0764,-0.182,0.608,128.8,-245.42,224.56,3,7
-2.5679,-0.6544,-0.588,-40.88,-160.44,112.56,8,12
-2.0433,-0.6198,-1.4835,92.4,35,-32.55,8,11
-0.0664,1.0336,1.9154,-25.13,108.92,-83.09,5,393
-2.8197,-0.8818,1.4825,66.15,208.88,-43.68,10,837
-1.3659,0.9584,0.6349,73.43,136.99,-47.74,2,1039
-0.67,-0.6232,0.6324,-103.67,21.35,-21.49,7,1039
-0.6159,0.4124,0.8926,-14.84,1.96,-7.91,1,952
-0.5763,0.1596,0.8779,11.41,4.83,-1.33,10,819
-0.5788,0.2152,0.8179,0.84,7.28,1.47,4,648
-0.5958,0.1718,0.8111,-8.68,3.22,0.42,9,455
-0.5827,0.1649,0.8257,-6.44,3.22,-2.17,21,328
-0.5734,0.1391,0.8296,-6.37,5.39,-4.9,82,145
-0.5646,0.1479,0.8428,-0.21,13.09,-10.22,159,37
-0.571,0.123,0.8647,3.78,28.56,-11.34,271,24
-0.5705,0.1571,0.8794,10.85,44.45,-10.92,405,14
-0.5514,0.0947,0.9301,0.49,79.45,-13.37,524,22
-0.5222,0.0976,0.9579,1.19,129.5,-13.79,608,26
-0.4953,0.2372,0.9487,-1.96,200.83,-17.29,631,21
-0.3928,0.4958,0.974,-26.81,300.09,-54.81,529,20
-1.5518,-0.062,0.9819,-70.63,423.15,-68.81,172,7
-2.8294,0.205,1.3737,68.6,323.82,-70.35,24,13
-0.5344,1.302,2.624,-17.29,83.09,-63.7,11,12
0.3675,0.4236,1.3747,-43.54,-85.68,-67.13,16,3
-0.1542,0.3152,0.9877,6.02,-159.11,-18.2,14,12
-0.4831,0.162,0.8154,-19.25,-222.11,39.27,14,12
-0.7549,0.3079,0.7408,25.76,-280.35,64.89,11,10
-0.9106,0.0342,0.7896,50.33,-289.87,57.33,7,12
-1.1775,0.2347,0.8242,91,-302.96,46.9,12,6
-1.3269,0.3938,0.9545,72.66,-282.1,60.55,10,4
-1.7885,0.5383,1.1561,34.65,-252.77,99.75,12,9
-2.7313,0.022,-0.06,104.86,-231.63,182.49,8,13
-2.3034,-0.8779,-0.5183,37.8,-178.5,151.13,6,16
-1.8925,-0.0634,-1.545,35.56,42.07,-16.73,10,7
0.3416,-0.9379,1.6802,-179.62,202.72,-35.42,8,346
-2.0999,-0.5768,1.6119,-116.27,208.04,-15.12,8,705
-1.2273,0.4656,0.5612,104.3,126.28,-37.45,12,893
-0.9028,-0.3148,0.6349,-211.82,15.4,-16.8,7,931
-0.6417,0.4675,0.8272,28.42,6.72,-7.42,6,912
-0.5939,0.0068,0.8457,19.46,4.69,-1.89,5,826
-0.5954,0.1313,0.8237,-6.58,2.52,1.82,6,661
-0.5871,0.1527,0.8169,-6.79,-2.1,-2.87,19,472
-0.569,0.1269,0.8394,-6.16,3.71,-3.01,43,333
-0.5607,0.141,0.832,-1.12,7,-2.45,75,163
-0.571,0.183,0.8306,3.36,10.99,-5.74,130,39
-0.5919,0.1005,0.8296,5.81,15.19,-5.46,226,23
-0.588,0.1669,0.8481,7.7,26.53,-7.77,336,17
-0.5583,0.1928,0.8882,5.67,46.69,-10.01,454,15
-0.5261,0.1015,0.9658,4.34,84.63,-11.55,568,16
-0.486,0.081,0.9814,2.73,148.54,-12.11,633,20
-0.487,0.2562,1.0082,6.93,231.56,-18.2,596,17
-0.4177,0.4031,1.0024,-51.59,343.28,-50.12,365,20
-1.7329,-0.1923,1.036,-10.08,447.3,-34.93,86,12
-2.7289,0.1859,1.2093,108.43,353.92,-55.93,13,15
-0.7871,1.2864,2.3448,46.76,74.97,-64.61,15,11
0.4509,0.3284,1.2786,-39.48,-105.35,-88.9,18,9
-0.2889,0.4143,0.9731,11.2,-183.75,-29.75,11,7
-0.4612,0.3201,0.7754,-17.57,-265.65,42.77,15,12
-0.6173,0.1864,0.7003,18.97,-289.38,73.15,17,10
-1.1409,0.0615,0.8272,82.32,-315.56,37.31,11,12
-1.4079,0.2625,0.8886,94.64,-325.43,27.93,7,12
-1.5445,0.6037,1.0834,39.41,-290.71,72.52,4,5
-2.2687,0.0356,0.9496,62.16,-277.62,182,7,11
-2.175,0.123,0.2469,62.37,-225.12,192.64,8,9
-2.7455,-1.3498,-1.3405,83.51,-120.96,73.71,7,7
-2.8226,-1.4323,-2.2058,-17.78,50.89,-53.27,4,10
-0.832,0.692,0.6939,-132.3,137.55,-39.97,3,302
-1.9852,-0.732,1.8432,1.54,253.75,2.45,5,677
-0.7349,0.7008,0.61,122.64,139.3,-59.64,8,1040
-1.1624,-0.264,1.0248,-238,34.93,-40.53,7,1075
-0.6827,0.5397,0.9531,-10.36,10.92,-20.3,9,1031
-0.6295,0.0508,0.8789,-0.42,9.52,-5.53,10,895
-0.588,0.1396,0.8218,2.38,11.97,-0.84,4,708
-0.6227,0.184,0.7974,-3.01,5.67,-2.73,15,515
-0.6066,0.1381,0.8189,-9.24,1.26,-2.8,47,386
-0.5934,0.1401,0.8223,-8.82,5.39,-3.92,83,250
-0.5963,0.1552,0.8154,-4.06,7.63,-6.79,156,77
-0.5856,0.1532,0.8423,-1.68,15.05,-11.13,259,30
-0.589,0.102,0.8638,1.12,32.41,-9.94,402,19
-0.5636,0.1518,0.893,1.12,54.32,-9.45,515,24
-0.5241,0.1937,0.9838,-17.57,100.38,-14.42,620,23
-0.4802,0.2728,0.9843,10.85,164.43,-17.99,681,22
-0.469,0.4543,1.0546,4.97,257.74,-48.65,632,26
-0.7027,0.3553,1.0917,-72.94,396.62,-90.58,305,15
-2.0974,0.367,1.0404,18.48,433.72,-90.3,29,7
-2.1492,0.6486,1.3396,32.9,243.32,-119.14,11,13
-0.447,0.6056,2.011,16.03,-78.82,-61.04,16,16
0.0722,0.3523,1.118,-16.45,-129.08,-13.93,12,7
-0.266,0.3992,0.852,-11.97,-216.02,54.81,17,8
-0.6539,0.1093,0.6939,32.9,-255.99,82.88,11,10
-1.0106,0.0439,0.794,34.51,-281.19,65.1,14,7
-1.2122,0.1454,0.7696,55.86,-290.36,65.94,13,12
-1.3127,0.2416,0.9165,42.14,-266.49,78.54,18,10
-1.5923,0.3977,0.9599,17.85,-246.26,93.24,16,16
-1.9603,0.0024,0.8774,41.93,-227.01,124.53,3,16
-2.1892,-0.0522,0.3587,81.13,-221.06,131.46,7,10
-2.1272,-0.8652,-0.8359,107.03,-105.84,48.86,7,11
-1.7056,0.0317,-0.7579,39.48,26.74,-27.65,4,8
-1.3005,0.3748,0.2323,-218.05,161.84,-51.31,10,183
-0.9501,-0.9379,1.3176,-141.33,291.48,-5.95,16,667
-1.3957,-0.2557,0.9438,-17.64,131.88,-72.24,3,1068
-0.6217,-0.0205,1.5094,-265.37,35.77,-27.51,1,1084
-0.6359,0.5544,0.8872,16.38,10.36,-19.95,8,975
-0.5973,-0.1025,0.833,12.95,14.14,-5.74,7,804
-0.6261,0.1269,0.8081,2.24,16.59,-1.33,13,575
-0.63,0.2045,0.7974,-10.64,5.11,-5.6,48,393
-0.5714,0.1279,0.832,-6.86,5.39,-4.55,103,233
-0.5963,0.141,0.8257,-1.4,12.74,-4.13,163,59
-0.5983,0.1601,0.8233,3.22,16.94,-6.23,259,24
-0.609,0.1396,0.8262,2.73,24.99,-7.77,364,19
-0.5851,0.1752,0.8642,1.26,39.13,-10.71,469,15
-0.5934,0.1152,0.8823,-3.36,70.84,-12.67,564,17
-0.55,0.1283,0.9521,-2.38,113.26,-13.51,638,13
-0.5344,0.204,0.9609,-0.49,177.66,-20.02,679,22
-0.3538,0.591,1.1112,-4.41,287.35,-55.3,573,17
-1.5455,0.0688,0.9496,-85.75,442.75,-89.11,165,18
-2.8621,0.0874,1.5426,41.3,364.28,-70.77,20,17
-0.3265,1.5016,2.7665,1.61,65.03,-69.09,11,10
0.324,0.1728,1.3884,8.61,-85.75,-54.67,15,11
-0.1893,0.4734,1.0477,23.8,-172.13,36.68,13,12
-0.4534,0.0439,0.833,23.8,-238.91,91.7,17,7
-0.8042,0.0332,0.8335,51.52,-259.14,75.11,15,14
-0.9453,-0.1171,0.8716,63.7,-271.25,46.62,7,16
-1.219,0.1283,0.9394,76.65,-284.97,47.11,17,11
-1.3298,0.2503,1.1195,42.49,-279.58,70.35,16,10
-1.7451,0.2528,1.2205,19.39,-255.22,102.34,15,9
-2.4049,0.1571,0.792,39.9,-257.95,132.02,16,9
-2.4844,-0.7008,-0.5719,79.1,-213.36,96.88,11,16
-2.0301,-0.4192,-1.7607,137.62,-31.99,8.26,10,9
-2.9685,1.0575,-1.3025,-117.18,59.71,-63.35,12,29
0.5295,0.0488,0.2499,-118.09,348.6,-58.73,7,687
-1.4821,-0.3436,1.2015,-61.11,150.57,-69.3,8,1146
-1.3005,-0.1005,1.0931,-177.24,36.82,-31.36,5,1109
-0.7369,0.2991,0.8433,0.28,12.11,-17.43,5,960
-0.5929,0.1454,0.8672,-12.46,13.16,-6.79,8,796
-0.6027,0.1571,0.8237,-1.82,17.92,0.56,20,560
-0.63,0.1806,0.792,-3.15,12.46,-1.75,48,367
-0.6271,0.1859,0.7935,-5.67,7.7,-4.27,88,217
-0.6154,0.1806,0.8247,-5.95,8.96,-5.95,134,68
-0.6256,0.0073,0.8028,-4.62,12.67,-5.74,232,21
-0.632,0.1532,0.8115,-0.63,16.87,-5.53,290,15
-0.629,0.1376,0.814,0.63,25.34,-7,371,18
-0.6017,0.1562,0.8613,3.01,41.02,-9.87,485,9
-0.5568,0.161,0.956,1.96,79.52,-12.18,572,12
-0.507,0.1142,0.9731,6.09,140.14,-8.47,596,16
-0.3714,0.285,1.0946,13.3,240.38,-32.76,543,11
-1.2805,0.1947,0.7984,-29.61,370.65,-66.43,215,11
-2.3165,0.2289,1.2468,55.37,282.87,-39.83,22,18
-0.1064,1.2678,2.1692,28.49,77.63,-57.05,15,16
0.2547,0.6095,1.8149,43.05,-109.41,-101.92,14,7
-0.0688,0.5002,1.1878,39.55,-179.27,10.01,10,7
-0.551,0.264,0.9906,25.41,-221.34,93.17,13,12
-0.8267,0.122,0.9658,33.6,-238,85.54,15,12
-1.0726,0.1381,0.9789,25.06,-241.99,60.2,13,7
-1.2034,0.2333,1.0272,16.1,-242.97,63.91,11,8
-1.1097,0.2196,0.9731,2.8,-223.65,62.09,11,7
-1.4908,0.1318,1.0111,31.78,-213.92,79.38,11,2
-1.4752,0.1088,0.652,32.13,-211.47,86.59,11,0
-1.6807,-0.2367,0.2255,81.41,-157.36,46.76,8,12
-1.5333,-0.2211,-0.4753,79.31,-89.95,-4.06,10,5
-1.6255,0.0483,-0.3314,-0.49,4.9,-31.01,8,6
-2.3941,1.2732,-0.7105,-33.74,98.21,-22.82,2,9
0.1806,0.6188,1.0365,28.7,263.55,-5.11,9,546
-1.5382,-0.4821,1.4533,17.92,118.79,-68.6,1,973
-1.1839,1.5133,0.9238,-38.57,107.59,-21.49,13,1077
-0.6061,-0.1952,0.9462,-23.17,29.82,-19.25,3,1074
-0.65,0.1196,0.8969,-30.73,16.66,-10.36,7,970
-0.5666,0.0737,0.8696,-11.97,17.78,1.96,5,793
-0.5807,0.2313,0.8101,-0.21,17.01,3.36,5,602
-0.6159,0.1401,0.7959,-1.26,9.03,2.66,8,480
-0.5968,0.2167,0.7901,-9.24,0.28,-4.34,11,441
-0.6012,0.1152,0.8213,-16.03,3.57,-11.55,40,365
-0.5929,0.1645,0.8379,-10.22,12.74,-14.14,99,199
-0.5963,0.1244,0.8447,1.47,22.05,-14.42,210,36
-0.5983,0.124,0.8516,-1.75,38.22,-20.58,354,14
-0.608,0.1157,0.854,-6.3,62.44,-21.7,497,18
-0.5788,-0.0005,0.9252,6.51,99.05,-16.94,604,18
-0.5339,0.1635,0.9511,13.02,156.1,-10.08,656,16
-0.3987,0.3875,1.0477,5.95,263.27,-19.18,599,15
-0.8486,0.6061,1.1204,-13.65,378.98,-87.43,231,24
-2.6972,0.3967,1.4611,18.62,329.91,-100.8,22,15
-0.5563,1.0468,2.6147,-36.54,143.08,-91.07,16,12
-0.0805,0.6095,1.9164,-18.76,2.31,-56.28,15,12
-0.0215,0.6832,1.3,-32.55,-137.2,3.71,16,7
-0.3416,0.3094,0.9633,-24.08,-223.09,61.25,16,12
-0.7125,0.1747,0.8891,-12.95,-271.67,75.88,15,12
-0.9819,0.2396,0.8974,16.94,-309.47,71.68,13,8
-1.2595,0.2996,0.9662,31.64,-329,69.3,15,6
-1.4635,0.5173,1.119,26.67,-308.42,77.98,17,8
-2.1994,0.3675,1.0424,32.41,-296.66,121.31,7,6
-2.3731,0.042,0.2577,89.53,-248.57,139.65,6,3
-2.4722,-0.6383,-1.2176,140.07,-177.94,71.68,0,11
-2.2487,1.1541,-1.7051,-70.56,106.05,-45.57,12,12
1.1741,-1.5718,1.953,88.06,321.37,-2.94,4,559
-1.3088,-1.1361,0.8457,22.82,168.7,-75.25,3,946
-2.724,0.876,1.3152,-84.63,83.72,-50.89,8,1041
-0.8501,-0.0825,0.8789,61.32,14.7,-19.18,8,957
-0.6085,-0.0249,0.8555,-8.33,20.23,-9.1,11,826
-0.5924,0.1391,0.8252,-9.31,24.22,-2.94,57,579
-0.6285,0.1449,0.8037,-8.19,18.62,-3.5,106,366
-0.6154,0.1508,0.8086,-4.76,14.77,-4.69,160,151
-0.63,0.1127,0.793,-2.52,13.65,-4.9,237,44
-0.6354,0.1318,0.7852,0.42,14.98,-6.16,302,26
-0.6198,0.1518,0.7984,-2.66,16.73,-10.92,415,14
-0.6222,0.1571,0.8262,-1.75,31.5,-17.57,528,18
-0.5963,0.1523,0.8813,-2.52,56.28,-25.62,646,14
-0.6007,0.1113,0.9257,-1.82,92.68,-27.02,766,15
-0.5549,0.1118,0.896,-2.59,147.42,-21.14,855,9
-0.5895,0.5505,0.9052,-35.7,227.01,-59.43,806,13
-0.5944,0.4758,1.0814,-96.88,337.4,-140.42,405,16
-1.9432,0.2411,1.0248,-39.34,379.19,-137.41,75,11
-2.3932,0.3821,1.2732,-31.57,229.67,-129.29,15,16
-0.9345,0.7022,2.0242,40.67,-13.09,-3.57,12,7
0.0166,0.2377,1.1927,-7.84,-85.68,43.19,16,9
-0.3845,0.5139,0.976,11.2,-192.08,74.97,11,7
-0.4563,0.0425,0.815,28.35,-242.48,101.5,13,12
-0.7964,0.0737,0.8247,57.4,-270.9,101.15,11,9
-1.0009,-0.1581,0.8779,62.3,-275.87,84.84,14,11
-1.1702,0.102,1.0219,51.24,-267.54,76.51,14,10
-1.4977,0.2084,1.1878,25.83,-262.85,81.41,16,5
-1.7529,0.1762,1.1244,41.23,-260.54,103.46,17,5
-2.6479,0.122,0.2401,86.73,-226.73,118.58,18,4
-2.0408,-0.7842,-0.8369,92.05,-190.61,84.28,11,7
-2.0071,0.3479,-1.5987,56.63,31.29,-44.17,10,7
0.8496,-1.1302,1.8676,-179.9,251.86,-65.87,8,405
-2.8577,-0.2611,1.9949,-195.37,212.45,-36.12,8,853
-1.9095,0.5275,0.9272,230.23,96.18,-44.1,0,928
-0.8032,-0.3845,0.8545,-45.99,-6.23,-17.64,8,946
-0.6012,0.222,0.8584,-14.63,3.43,-4.83,5,870
-0.5597,0.1845,0.8677,-1.19,2.94,-0.21,8,720
-0.5768,0.1898,0.8272,2.31,1.82,-0.63,18,522
-0.5671,0.1166,0.8428,-6.72,3.71,-2.66,59,347
-0.5744,0.1303,0.8486,-3.85,6.79,-4.55,124,140
-0.5763,0.1444,0.8379,0.42,13.51,-5.95,206,30
-0.5768,0.142,0.8394,2.87,15.82,-7.77,313,25
-0.5568,0.164,0.8818,3.71,27.93,-12.39,419,15
-0.5578,0.1147,0.8921,-6.3,56.07,-17.22,573,18
-0.5475,0.1332,0.9204,-10.78,93.94,-17.5,675,7
-0.5226,0.1693,0.957,-9.87,142.94,-20.79,752,14
-0.5153,0.3421,1.0033,2.73,218.75,-22.82,779,10
-0.4143,0.5939,0.9643,-39.34,329.21,-83.3,588,16
-1.8524,-0.469,1.0297,-109.76,447.44,-93.66,137,14
-3.0095,0.3099,1.2488,82.74,376.18,-94.64,16,13
-0.1484,1.2527,2.3136,31.5,94.22,-86.1,16,8
0.5622,0.833,1.2912,-16.17,-99.54,-22.4,11,12
-0.3128,0.1937,0.9862,43.61,-183.54,56.98,11,11
-0.63,0.0844,0.7715,16.03,-275.73,108.99,15,10
-0.6398,0.0415,0.6925,60.69,-281.68,97.51,7,7
-1.0585,-0.0781,0.8369,68.81,-290.92,66.43,3,11
-1.2307,0.2011,0.9399,66.29,-294.56,62.02,12,11
-1.506,0.2962,1.1331,53.06,-294.28,83.23,12,6
-1.8866,0.3128,1.137,49.14,-286.3,107.1,14,12
-2.5722,0.0185,0.4446,80.85,-272.37,133.56,16,10
-2.6874,-1.1302,-1.1927,91,-154.14,99.96,5,8
-2.5,0.7432,-0.8545,-26.32,38.01,8.19,7,7
0.8764,-1.4001,2.2106,-106.19,241.64,-28.56,7,498
-2.3526,-1.0185,1.4479,-36.82,162.12,-94.99,7,954
-3.4711,1.7051,0.9828,35.35,36.61,-61.11,7,1009
-0.8882,-0.4163,0.9755,59.22,-3.01,-17.71,4,982
-0.5905,0.0654,0.8647,-29.68,1.68,-4.2,7,876
-0.6305,0.0986,0.8228,-5.88,3.5,0.35,7,714
-0.5968,0.162,0.815,-1.96,2.1,0.91,28,491
-0.5827,0.1669,0.8291,-0.14,0.56,-2.45,56,290
-0.5827,0.0991,0.8198,-4.13,7.42,-2.87,106,95
-0.5866,0.1279,0.8267,-2.45,11.83,-4.13,163,31
-0.5978,0.1752,0.8169,9.73,12.46,-6.86,240,15
-0.5724,0.1586,0.8555,6.93,19.74,-10.5,345,17
-0.5466,0.1659,0.8994,2.31,46.06,-13.72,482,15
-0.4943,0.1498,0.9823,5.11,90.02,-17.08,592,9
-0.4929,0.0605,1.0136,-4.48,159.74,-14.49,678,6
-0.4358,0.3875,1.0268,-7.98,244.65,-26.32,686,13
-0.3777,0.4973,1.0653,-70,380.52,-87.71,454,18
-1.7675,-0.387,1.1009,-19.81,460.11,-86.59,87,18
-2.5293,0.3743,1.2668,73.01,357.21,-113.33,14,14
-2.0516,0.7447,1.9988,-3.08,5.46,-71.12,9,7
0.3816,0.2538,1.0204,-8.05,-124.25,-33.25,11,12
-0.3377,0.3845,0.8935,43.89,-186.2,48.3,15,9
-0.5187,0.0532,0.7593,2.24,-259.35,107.8,14,5
-0.8281,0.0024,0.7637,43.68,-297.64,110.6,20,7
-1.0824,-0.0356,0.7959,62.3,-310.1,76.16,9,16
-1.3259,0.1864,0.9404,48.65,-323.75,75.04,14,7
-1.404,0.3455,1.1283,39.97,-314.93,92.89,13,11
-2.1721,0.2904,1.0785,55.44,-306.32,117.74,7,9
-2.0467,-0.2542,0.1801,92.33,-235.97,102.34,5,8
-2.5703,-0.8091,-1.2015,136.85,-107.1,24.57,8,3
-2.541,1.706,-0.9082,-56.28,66.64,-14.91,4,11
-0.1259,1.1639,0.5041,-296.24,185.78,-48.65,8,298
-2.5098,-1.8002,1.8173,52.36,290.43,-28.91,3,823
-1.221,0.6471,0.568,129.92,150.64,-54.11,6,1128
-0.8433,-0.6344,0.8969,-226.73,36.19,-29.89,7,1102
-0.7413,0.8696,0.8394,-23.38,11.9,-23.03,3,1022
-0.6076,0.1757,0.8701,-0.84,10.85,-2.38,4,832
-0.6207,0.2347,0.8032,-6.44,6.93,0.56,3,589
-0.6324,0.2284,0.7901,-15.54,3.43,-2.24,11,453
-0.6041,0.1498,0.815,-10.29,-0.21,-3.5,35,350
-0.5998,0.1088,0.8072,-5.18,5.46,-4.83,71,243
-0.6061,0.1625,0.8062,-0.98,6.09,-9.1,139,96
-0.5978,0.1391,0.8428,1.96,11.34,-10.29,236,28
-0.59,0.1269,0.8638,12.32,27.37,-9.59,361,24
-0.5275,0.2006,0.9531,5.6,57.82,-13.3,485,20
-0.4817,0.101,1.0204,-0.84,126.63,-15.26,576,17
-0.51,0.2889,0.9604,3.85,201.74,-24.22,638,20
-0.345,0.5085,0.9682,-27.09,322.42,-56.49,538,18
-1.4089,-0.0991,1.0785,-91.14,435.19,-63.63,170,18
-2.8548,0.1059,1.3806,54.95,395.29,-68.67,18,12
-1.1702,1.0975,1.5919,85.05,163.73,-89.39,12,9
0.6139,0.8886,1.4167,-23.31,-111.16,-76.58,14,18
0.0312,0.2689,0.9399,5.81,-144.62,-19.81,9,5
-0.4841,0.4577,0.8262,-10.92,-241.85,56.56,22,11
-0.5714,0.1386,0.6529,4.97,-304.29,83.93,14,16
-0.957,0.1523,0.7769,33.81,-299.6,68.74,16,12
-1.3113,0.3299,0.8335,49.35,-325.43,58.1,9,14
-1.3718,0.5373,0.9921,37.8,-305.41,82.18,10,10
-2.1638,0.4724,1.1151,60.13,-299.81,142.66,9,9
-2.1106,0.0791,0.5422,64.4,-252.7,163.66,6,16
-2.3766,-0.3792,-0.5529,149.45,-160.44,129.43,7,12
-2.4151,-0.8423,-1.3801,96.88,-10.5,5.04,4,7
0.5402,0.8794,-0.6539,-322.21,200.06,-40.32,6,52
-1.3991,-0.9067,0.9843,30.87,307.23,21.84,8,612
-1.0502,-0.3987,0.6656,46.76,138.88,-77.84,7,1000
-0.4412,0.4665,1.5528,-424.55,67.62,-18.27,6,1022
-0.5451,0.5968,0.9584,73.01,1.47,-10.43,12,968
-0.632,-0.1781,0.8057,26.6,3.78,-0.7,4,822
-0.629,0.0498,0.7993,0.98,4.34,1.54,6,609
-0.6134,0.1513,0.8028,-9.03,-2.17,-2.45,20,442
-0.5836,0.1405,0.8345,-1.54,3.36,-3.36,56,288
-0.5822,0.1391,0.8213,-1.54,9.03,-4.48,107,89
-0.6012,0.1615,0.8198,-3.01,10.64,-8.33,220,33
-0.5807,0.1508,0.8447,2.31,19.11,-9.31,311,16
-0.5661,0.1371,0.8755,8.61,39.13,-10.01,407,21
-0.568,0.0981,0.9238,-3.29,70.84,-10.15,519,12
-0.5109,0.1659,0.9716,-4.97,124.11,-14.14,615,14
-0.5573,0.1903,0.9584,6.37,186.9,-17.01,655,18
-0.4211,0.5124,1.0014,-7.49,287.84,-54.88,568,15
-1.1639,0.0327,1.1858,-72.8,442.89,-86.31,181,20
-2.9851,0.2318,1.4806,53.69,398.3,-70.28,17,11
-0.8516,1.2224,1.8456,72.38,135.24,-88.2,9,9
0.5661,0.8169,1.4464,5.18,-75.11,-77.56,16,9
-0.0224,0.3094,1.0077,50.05,-135.66,3.22,6,6
-0.4534,0.2913,0.8882,7.35,-217.28,85.68,8,13
-0.5861,0.0464,0.8086,20.44,-269.01,105,11,13
-0.9784,-0.0415,0.8965,39.62,-290.29,72.45,14,7
-1.3117,0.0483,0.9238,70.49,-318.57,49.21,10,11
-1.3923,0.3436,1.0555,52.5,-313.11,53.69,8,9
-1.9457,0.4953,1.1522,46.9,-291.41,76.02,10,11
-2.4766,-0.243,0.5578,125.93,-283.15,139.65,0,7
-2.3209,-0.487,-0.5212,68.53,-167.65,129.71,7,10
-2.8206,-1.425,-1.8642,94.22,-6.93,28.98,9,12
-1.3127,0.0649,-0.9199,-389.06,199.85,-104.37,7,111
-2.7479,-0.3684,2.0081,-52.01,262.71,-53.76,9,867
-2.3258,1.2834,1.1629,187.81,98,-65.24,10,1040
-0.9526,-0.6339,0.7666,17.22,21.91,-17.64,9,993
-0.6324,0.2987,0.8969,-35.21,7.14,-10.92,7,887
-0.5958,0.1703,0.8486,17.92,4.06,-3.36,10,728
-0.6046,0.1708,0.813,1.54,-0.07,0,16,536
-0.5983,0.1552,0.8042,-3.22,-0.21,-2.31,37,352
-0.5802,0.1654,0.8237,-8.33,2.66,-5.67,88,188
-0.5939,0.1269,0.8198,-7.63,6.58,-6.09,132,57
-0.5876,0.1566,0.8267,-1.12,13.58,-6.72,234,24
-0.5958,0.1157,0.8272,2.1,21.28,-7.14,326,16
-0.5749,0.1566,0.8589,2.94,37.59,-11.13,414,17
-0.5407,0.1313,0.9501,-0.42,67.76,-12.67,538,15
-0.5217,0.0776,0.9706,-3.36,126.14,-14.21,617,20
-0.5158,0.285,0.978,1.75,193.83,-23.66,648,14
-0.386,0.4812,0.9955,-13.23,299.32,-69.79,554,16
-1.2893,-0.0473,1.1292,-72.31,425.81,-56.21,186,20
-2.5269,0.2747,1.361,20.93,417.06,-65.59,24,12
-1.4098,0.7793,1.6948,93.1,168.91,-63.63,15,12
0.5607,0.6637,1.4855,3.57,-114.38,-79.73,13,12
-0.081,0.283,1.0175,38.57,-166.6,-32.27,17,16
-0.3806,0.367,0.8306,0.49,-248.85,42.14,16,14
-0.7091,0.2328,0.792,42.98,-274.89,90.09,13,14
-0.8735,-0.06,0.8911,52.15,-299.74,77.28,14,11
-1.1468,0.1074,0.917,98.42,-304.43,48.02,12,8
-1.4264,0.304,1.1395,80.43,-293.02,53.97,10,12
-1.9993,0.3143,1.2449,55.09,-291.97,100.1,13,16
-2.0267,0.3011,0.4231,98.77,-225.96,141.33,5,9
-2.2126,-0.4817,-0.8335,81.62,-189.28,132.02,6,8
-1.7573,-0.2786,-1.2171,62.79,34.51,10.22,9,10
0.3089,-1.0053,2.3707,-176.89,171.01,-47.46,11,408
-2.6679,-0.4612,1.4411,-106.96,214.06,-61.25,7,879
-2.8333,0.8574,0.9326,201.46,49.35,-58.94,3,952
-0.7271,-0.4782,0.9648,1.61,-2.94,-16.31,10,968
-0.6339,0.2928,0.8613,-19.6,-3.85,-5.88,8,882
-0.5988,0.185,0.8623,-13.02,-0.7,-0.98,11,727
-0.5695,0.1972,0.8413,1.61,1.19,0.35,42,532
-0.5739,0.1191,0.8345,4.48,1.82,-2.94,97,342
-0.5822,0.103,0.8403,-1.19,3.43,-4.55,158,156
-0.5719,0.1425,0.8408,-2.1,8.26,-5.32,223,50
-0.5768,0.1142,0.8369,6.09,13.79,-5.74,314,34
-0.5836,0.1288,0.8467,-3.71,22.26,-9.66,412,19
-0.5329,0.2069,0.9126,-6.3,42.84,-15.12,508,13
-0.5266,0.1157,0.9536,-4.62,76.3,-12.74,636,11
-0.5109,0.0361,1.0028,-8.89,134.54,-10.29,724,9
-0.489,0.4207,0.9945,-13.72,207.97,-31.08,740,16
-0.4831,0.4094,0.954,-67.97,334.18,-87.71,537,13
-1.6787,-0.3465,0.9472,-54.81,433.79,-88.97,132,16
-2.8143,0.3338,1.3557,71.19,316.75,-88.2,18,11
-0.3123,1.4972,2.6372,-56.98,45.22,-71.68,15,8
0.3026,0.0922,1.4459,5.74,-100.45,-18.27,16,6
-0.1035,0.61,1.1341,18.69,-189.07,57.05,11,5
-0.5363,-0.0346,0.8764,47.32,-255.08,99.96,10,6
-0.8262,-0.0244,0.8608,58.03,-274.75,85.26,16,8
-1.0263,-0.1747,0.8926,86.24,-276.85,61.39,7,14
-1.4513,0.0083,1.018,81.2,-291.69,48.3,12,9
-1.4342,0.1718,1.1068,63.7,-292.04,61.95,14,8
-1.8027,0.1723,1.0097,63.42,-282.73,93.38,20,12
-2.3785,-0.0205,0.2323,63.98,-240.45,105.07,13,6
-2.584,-1.1405,-1.3522,99.61,-104.09,48.79,7,9
-1.605,-0.9906,-0.5085,-7.49,69.37,-46.9,14,9
1.567,-0.6705,1.0165,-132.51,227.29,-26.11,3,500
-2.3248,-0.7774,1.2107,-54.18,178.08,-85.75,5,995
-3.2091,1.8876,1.4381,14.7,45.36,-62.58,8,1060
-0.854,-0.4329,1.0224,68.04,1.12,-15.61,6,1013
-0.6383,-0.0795,0.8208,-36.05,2.24,-3.99,5,888
-0.5915,0.0991,0.8394,-3.43,5.88,1.82,7,707
-0.5973,0.1571,0.8237,-6.65,0.7,2.59,7,524
-0.588,0.1684,0.8237,-6.72,-0.07,-1.4,20,379
-0.5612,0.1454,0.8398,-7.63,3.22,-3.43,58,269
-0.5822,0.1322,0.8262,-2.94,5.74,-4.62,106,127
-0.588,0.1298,0.834,-1.47,13.02,-6.72,210,39
-0.5758,0.1103,0.8589,6.79,24.78,-7.84,316,17
-0.5505,0.1249,0.8901,9.17,46.83,-8.26,398,17
-0.53,0.1142,0.9623,-1.12,84.42,-9.73,514,22
-0.5144,0.1054,0.9672,3.01,146.44,-13.37,606,18
-0.4738,0.3367,1.0224,-14.84,228.13,-35.42,618,14
-0.4226,0.2938,1.058,-62.86,363.72,-68.81,391,19
-1.6572,-0.3621,1.2122,15.96,466.69,-40.67,79,18
-2.5059,0.0244,1.3278,175.49,313.6,-39.69,15,11
-1.5431,1.1429,2.0472,-72.52,-1.4,-90.44,9,8
0.3958,-0.1698,1.0687,51.1,-111.16,-51.73,13,10
-0.2377,0.4197,0.9116,62.09,-187.95,21.07,13,6
-0.5241,-0.0888,0.7754,58.1,-255.36,82.53,10,8
-0.8369,-0.0669,0.8359,71.19,-285.67,69.02,14,9
-1.0804,-0.0922,0.8716,91.63,-294.42,39.62,13,5
-1.3059,0.0874,1.0643,78.61,-288.89,39.48,7,7
-1.7334,0.1566,1.239,61.25,-291.55,61.32,8,6
-2.3019,-0.1601,0.9121,99.54,-283.64,87.85,3,6
-2.4961,-1.8144,-0.2772,97.86,-224.91,73.22,0,7
-2.0359,-0.3977,-1.4386,70.77,-49.56,6.37,6,11
-2.2741,-0.6222,-0.7964,-286.23,133,-129.57,8,56
-0.7974,0.5422,0.7852,167.37,263.55,-45.29,9,598
-1.4616,-0.0771,0.7037,13.02,136.01,-47.32,7,903
-0.7115,-0.3367,0.7608,-207.34,6.44,-16.31,0,926
-0.6944,0.4153,0.8926,9.1,-3.01,-6.16,9,904
-0.5695,0.1191,0.8506,15.75,-0.77,-1.12,6,800
-0.5724,0.1122,0.8433,4.76,-0.35,1.89,7,676
-0.5724,0.1488,0.8257,-0.91,3.15,-0.91,21,473
-0.5627,0.121,0.8389,0.63,3.36,-2.1,63,354
-0.5871,0.1288,0.856,-1.33,7.98,-1.96,99,199
-0.5836,0.1723,0.8311,-1.4,9.73,-5.53,176,70
-0.5729,0.1523,0.8477,1.12,14.63,-7.21,263,31
-0.5558,0.1405,0.8725,7.91,29.4,-6.58,370,20
-0.5563,0.181,0.9008,7.63,53.34,-9.24,479,15
-0.5187,0.12,0.957,3.22,91.28,-11.76,575,15
-0.5173,0.081,0.9633,1.26,147.91,-12.04,623,14
-0.5202,0.2489,0.9848,-0.42,221.06,-18.9,610,10
-0.527,0.327,1.0014,-45.78,330.47,-49.7,371,14
-1.465,-0.2747,1.1502,-11.06,437.43,-24.08,108,14
-2.8489,-0.0166,1.1566,142.38,358.75,-33.88,14,13
-0.7808,1.1424,2.5137,57.26,52.64,-85.61,20,7
0.2308,-0.1713,1.241,80.78,-122.36,-87.92,11,8
-0.1786,0.3699,1.0536,75.04,-185.08,32.9,14,14
-0.4797,-0.1976,0.9316,44.45,-247.87,105.98,15,8
-0.8706,-0.2015,0.9575,73.29,-299.95,79.8,16,11
-1.0931,-0.4797,0.9843,86.73,-310.1,10.78,12,5
-1.2337,-0.1083,1.035,73.64,-296.94,-15.47,8,10
-1.6006,0.0068,1.1307,78.54,-283.57,-4.34,6,12
-1.9949,-0.1059,0.9091,93.8,-276.71,51.45,9,7
-2.4307,-0.142,0.0893,93.1,-237.86,92.4,7,0
-2.3068,-1.1058,-1.6948,64.05,-78.82,40.74,5,7
-0.0966,0.406,-1.9569,-119.14,164.15,-104.02,9,28
-0.7842,0.2528,0.8628,45.22,276.15,-33.88,12,587
-1.7758,-0.3245,1.3049,-100.8,138.95,-64.4,3,934
-0.5051,0.3787,1.4098,-240.1,26.74,-27.16,2,938
-0.65,0.163,0.8623,39.34,0.42,-8.82,0,926
-0.6149,-0.0878,0.855,2.66,-2.1,-2.38,5,847
-0.6041,0.0781,0.834,-3.15,-2.03,3.43,12,711
-0.5646,0.1508,0.8457,-3.78,0.14,1.47,5,549
-0.5822,0.1527,0.8281,-3.5,0.63,-1.33,16,428
-0.57,0.1454,0.8442,-3.5,4.55,-1.89,44,316
-0.5758,0.1596,0.8208,-2.38,7.35,-4.62,95,140
-0.5724,0.1537,0.8408,0.91,11.83,-6.93,165,56
-0.5734,0.1322,0.8672,5.88,22.33,-7.35,262,29
-0.5436,0.1576,0.8804,9.73,40.74,-8.75,370,17
-0.5187,0.1532,0.9496,-0.84,72.73,-11.83,490,9
-0.5002,0.1074,0.9882,1.26,125.16,-9.87,588,18
-0.5041,0.3021,0.9775,11.83,197.26,-9.66,595,13
-0.3982,0.4168,0.9789,-0.77,297.43,-29.54,496,15
-1.1785,-0.102,1.1258,-39.2,432.32,-29.47,180,15
-2.8192,0.3187,1.2717,43.19,404.25,-46.41,9,17
-1.2098,0.5876,1.5489,85.82,174.72,-58.52,11,11
0.5012,0.9472,1.6216,46.34,-109.41,-128.94,8,8
-0.1157,0.2162,1.1082,46.69,-173.25,-66.92,14,6
-0.4499,0.3123,0.7779,12.04,-255.99,55.79,16,9
-0.7828,0.1171,0.7998,32.83,-272.86,80.36,6,12
-0.9209,-0.1069,0.8311,46.83,-292.39,45.99,5,15
-1.2195,0.2079,0.8945,78.05,-279.51,25.06,10,8
-1.4894,0.4616,1.0687,46.34,-276.99,71.61,12,7
-1.8744,0.4114,0.9809,40.18,-261.1,129.36,7,2
-2.7601,-0.1327,-0.0864,99.19,-215.53,188.02,7,9
-2.3795,-0.3894,-0.4255,26.81,-170.87,141.89,9,6
-1.6797,-0.4802,-1.0307,111.79,5.95,29.4,2,7
-0.6393,-0.5163,-0.4363,-238.63,170.94,2.94,0,224
-2.1584,-0.3914,1.5504,-168.21,275.03,-18.41,5,718
-1.7856,0.8418,0.5836,198.66,132.93,-64.33,8,932
-0.8067,-0.5558,0.3582,-77.91,9.73,-18.9,7,949
-0.6002,0.3396,0.8813,-9.38,4.76,-11.55,8,878
-0.6261,0.1332,0.8369,-13.51,1.89,-3.15,18,686
-0.5856,0.1889,0.8345,-4.69,5.11,-2.1,51,457
-0.5714,0.1562,0.8291,-1.61,7.35,-4.69,99,224
-0.588,0.1249,0.8198,-1.54,10.43,-6.58,165,45
-0.5876,0.1113,0.8286,-1.12,14.77,-7.63,252,19
-0.59,0.1327,0.8316,1.26,20.79,-7.77,325,23
-0.5783,0.1771,0.8545,1.47,32.62,-9.59,434,25
-0.5963,0.1025,0.8677,-2.38,51.38,-10.43,541,16
-0.571,0.12,0.9238,1.96,80.78,-9.73,624,12
-0.5085,0.1122,0.9565,2.73,138.88,-15.89,672,6
-0.51,0.2606,0.9677,6.58,216.86,-13.23,667,16
-0.4875,0.3753,0.9843,-33.81,329.14,-70.49,448,16
-1.6919,-0.243,0.9623,-63.63,415.73,-65.59,94,16
-2.7167,0.3314,1.2327,20.44,323.68,-104.23,16,11
-0.7847,0.9853,2.3487,-51.38,68.95,-70,11,3
0.1444,0.203,1.2244,-38.22,-131.46,-67.2,19,9
-0.2303,0.7525,0.9404,-47.32,-211.75,-2.52,14,12
-0.426,0.2425,0.6593,-26.25,-251.58,57.68,7,12
-0.9443,0.4753,0.7222,-8.05,-276.92,74.13,21,12
-1.5133,0.2503,0.794,1.19,-289.94,80.71,18,11
-1.2439,0.4699,0.7764,-25.55,-263.62,91.84,17,6
-1.4679,0.6446,0.8599,-7.77,-241.5,119.42,8,5
-1.6602,0.487,0.8325,31.57,-226.17,141.4,10,10
-1.869,-0.3802,0.9877,84.7,-166.18,162.96,9,7
-2.4585,0.0122,0.1757,62.02,-149.66,120.54,6,10
-1.5821,-0.3601,-0.5588,50.19,-88.41,25.62,3,10
-1.9144,-0.2513,-0.8442,-84.56,74.27,14.28,7,18
-0.5358,-0.3406,2.4234,27.86,300.37,12.95,12,514
-1.9691,-0.9467,0.8999,-32.2,125.65,-63.42,3,912
0.002,0.6456,0.9043,-204.75,47.81,-36.4,7,955
-0.4875,-0.0068,0.9335,45.99,5.53,-12.81,7,944
-0.5949,-0.0239,0.8394,-6.09,11.83,-3.99,0,819
-0.5739,0.2445,0.8301,-6.44,12.04,-3.36,12,629
-0.5944,0.1191,0.8301,-16.17,9.87,-3.92,39,431
-0.5656,0.0986,0.8472,-11.13,11.06,-4.62,101,292
-0.588,0.1991,0.8169,0.21,16.52,-7.98,184,96
-0.57,0.1806,0.852,3.64,16.52,-12.6,275,25
-0.589,0.1962,0.8525,-2.31,21.49,-16.59,389,22
-0.5632,0.1474,0.9072,-6.51,43.26,-20.3,533,18
-0.5885,0.103,0.8916,-6.58,70,-22.4,648,15
-0.5851,0.1342,0.9038,-14.56,104.44,-25.76,735,22
-0.6027,0.2001,0.9526,-20.51,149.24,-26.39,836,9
-0.5319,0.4592,0.9209,-37.31,225.82,-39.27,811,11
-0.6715,0.7218,1.0004,-78.68,339.71,-135.87,480,23
-1.93,0.2035,1.1209,-75.46,402.64,-156.38,82,20
-2.46,0.5749,1.3298,-13.3,243.46,-138.67,24,14
-0.9648,0.3606,1.9657,6.37,-63.28,-8.61,14,16
0.0029,0.5026,1.0936,-43.89,-100.66,50.96,18,7
-0.4036,0.222,0.8833,0.98,-203.63,85.89,11,8
-0.3192,0.1493,0.5998,35.21,-256.06,93.24,16,7
-0.8125,0.1542,0.712,46.27,-259.21,87.01,16,7
-0.975,0.1176,0.7686,55.65,-272.58,87.99,14,6
-1.1082,0.102,0.9213,53.06,-273.35,94.64,13,12
-1.3469,0.3318,1.0814,41.37,-265.09,113.61,20,11
-1.7553,0.3294,1.12,33.95,-241.36,139.79,13,9
-2.6118,0.1342,0.6041,63,-245.84,156.24,15,5
-2.3019,-0.8052,-0.9467,74.06,-152.74,116.41,16,7
-2.0579,0.1523,-1.3186,49.91,54.95,50.26,11,6
-0.5383,0.9096,0.1279,-200.2,80.99,-7.7,10,56
-1.3766,-1.1146,1.1048,-93.24,346.78,-20.37,6,718
-2.3844,0.3216,0.6456,79.94,142.38,-64.47,10,1077
-1.6607,-0.3943,0.06,-161.07,8.61,-12.95,6,1032
-0.4909,0.5388,0.9335,3.78,8.68,-16.1,7,929
-0.6198,0.1074,0.853,5.04,5.39,-9.38,6,760
-0.612,0.1357,0.832,-1.61,7,-0.98,27,506
-0.6159,0.1508,0.8072,-7.14,9.1,-0.49,73,283
-0.6173,0.1874,0.7935,-9.59,7.28,-4.76,120,119
-0.6159,0.0893,0.8091,-8.19,7.77,-6.02,171,52
-0.6251,0.1293,0.8067,-1.96,9.87,-8.12,255,27
-0.6207,0.1347,0.8135,2.45,14.49,-10.57,367,22
-0.5851,0.1293,0.8628,2.17,24.36,-14.28,481,18
-0.5744,0.1025,0.914,-8.4,52.08,-17.64,588,13
-0.5412,0.062,0.9511,-6.3,99.54,-16.66,685,15
-0.5173,0.2982,1.0077,11.41,176.33,-26.6,744,6
-0.4133,0.5222,1.0731,-16.66,287.84,-72.87,670,6
-1.5709,-0.2791,1.0878,-138.25,464.03,-104.23,169,15
-3.1515,0.122,1.4152,22.12,357.56,-94.43,15,16
-0.3094,1.4254,2.157,-22.19,85.61,-70.91,17,2
0.5627,0.8355,1.4074,-69.16,-86.17,-19.81,18,7
-0.2777,0.3387,1.0019,-2.73,-179.62,19.46,18,5
-0.4831,0.3421,0.7652,-26.53,-259.49,61.88,12,11
-0.5573,0.3392,0.67,11.69,-285.6,86.8,16,10
-1.1151,0.1279,0.854,31.43,-302.47,84.42,12,7
-1.2532,0.3865,0.8394,58.38,-315.49,68.53,11,7
-1.4459,0.6256,1.0238,43.12,-280.7,76.23,13,6
-2.0852,0.446,1.0819,46.55,-252.91,130.69,7,10
-2.4522,0.7457,-0.2699,3.43,-162.89,180.18,18,13
-2.1599,-0.6105,-0.6695,27.51,-166.04,159.81,11,4
-2.7626,0.1337,-1.0926,-6.37,47.18,8.12,10,8
1.3171,-1.3196,1.9091,-103.39,336,74.69,7,481
-2.4161,-1.0809,2.076,-225.61,150.57,-67.62,5,921
-3.1383,2.4703,0.8316,158.27,-24.99,-54.95,4,963
-0.9228,-0.9106,0.814,-12.67,0.63,-24.36,7,946
-0.612,0.1254,0.8638,-46.69,5.11,-4.62,6,857
-0.5714,0.2098,0.8799,-11.2,9.94,2.03,11,694
-0.5046,0.2367,0.8008,-8.82,3.85,-3.08,53,463
-0.5695,0.164,0.8501,-7.63,3.57,-5.95,112,304
-0.5656,0.1142,0.8545,-1.68,11.97,-4.83,178,87
-0.6056,0.141,0.835,2.66,16.31,-5.46,268,27
-0.6051,0.1713,0.8394,-5.25,18.83,-8.61,374,26
-0.5695,0.1796,0.874,-2.52,30.73,-14.7,488,24
-0.5734,0.0786,0.8935,-1.54,59.08,-15.05,602,13
-0.5178,0.1093,0.9784,-8.68,108.08,-15.68,705,15
-0.5114,0.0654,0.9882,0,182.91,-13.16,759,9
-0.4558,0.5324,1.0063,-4.62,284.48,-53.34,655,15
-1.0097,0.2894,1.1029,-113.26,417.97,-112.84,283,16
-2.2458,0.3436,1.2171,-13.72,441.56,-109.9,23,13
-2.0193,0.7227,1.382,65.38,194.11,-125.65,15,12
0.6285,1.0146,1.5309,6.72,-97.16,-43.47,9,12
-0.0512,0.0956,0.9784,1.12,-139.16,27.93,12,10
-0.303,0.3972,0.8486,2.94,-228.2,90.44,11,11
-0.7584,-0.0673,0.7745,34.51,-271.81,115.99,11,13
-0.996,-0.021,0.7871,52.5,-306.88,86.73,13,11
-1.1585,0.2054,0.8462,52.85,-297.57,74.76,10,14
-1.4591,0.2752,1.1019,35.63,-278.18,87.01,10,12
-1.9139,0.3343,1.1058,39.97,-293.93,96.6,11,7
-2.3014,0.042,0.6656,88.55,-272.79,128.17,14,9
-2.235,-0.5353,-0.364,87.85,-185.64,100.31,16,7
-2.316,-0.8174,-1.5914,100.24,-31.01,32.27,13,7
0.2342,0.8359,-1.218,-294.14,160.65,-71.82,11,67
-1.3869,-0.3357,1.0004,-64.05,334.95,-18.06,9,720
-1.0726,0.2054,0.5954,18.76,155.54,-52.22,0,1092
-0.7086,-0.4104,0.6959,-208.95,28,-26.53,10,1082
-0.7013,0.4148,0.8316,-1.82,9.94,-14.21,10,983
-0.6295,-0.0112,0.854,9.8,10.43,-4.34,6,816
-0.6149,0.2391,0.8057,0.49,10.36,0.07,5,595
-0.6139,0.2025,0.7896,-4.34,5.18,-1.82,17,383
-0.6222,0.1484,0.8013,-12.67,0.63,-5.04,52,212
-0.6066,0.1283,0.8057,-2.66,3.92,-4.2,112,82
-0.6202,0.1474,0.8115,-7,9.24,-6.86,196,32
-0.6149,0.142,0.8252,4.69,14.84,-7.63,290,12
-0.5817,0.1537,0.8662,7.84,34.51,-10.29,415,13
-0.5378,0.1005,0.9462,-1.89,72.8,-13.09,535,13
-0.5031,0.062,1.0082,-3.92,133.63,-14.49,617,11
-0.4377,0.2054,0.978,7.98,216.51,-16.8,637,13
-0.2943,0.5861,1.0028,-28.07,337.89,-56.21,511,15
-1.4762,-0.3675,1.0331,-46.06,482.44,-40.88,127,10
-3.09,0.1025,1.2517,106.96,350.7,-63.42,17,16
-0.7276,1.7002,2.6376,-4.76,41.3,-75.53,22,9
0.3777,0.467,1.3396,-10.71,-127.05,-84.7,16,7
-0.1601,0.4519,0.9106,19.04,-210.63,4.83,18,10
-0.5388,0.2089,0.7603,-2.73,-259.7,89.04,12,7
-0.7662,0.1215,0.7183,15.47,-291.13,91.63,11,9
-0.9643,0.0181,0.7969,45.64,-293.65,54.46,7,3
-1.2956,0.2059,0.9457,55.3,-283.29,45.01,16,6
-1.6309,0.4895,1.1678,27.3,-286.02,61.46,7,5
-2.035,0.2235,1.0697,40.39,-277.34,100.87,9,6
-2.5762,-0.0112,0.3396,116.41,-245.7,138.81,4,7
-2.461,-0.771,-1.1087,82.11,-148.05,103.32,12,8
-1.1068,0.244,-0.6656,42.42,109.83,-0.7,5,8
0.4943,-1.0092,1.8788,-12.39,193.06,-12.25,7,491
-2.0774,-0.9355,1.12,11.9,171.5,-79.03,7,917
-2.0872,1.8095,1.1097,64.47,85.4,-69.86,16,1025
-1.0795,-0.5144,0.8442,54.88,13.65,-25.27,10,1016
-0.6046,0.162,0.8647,-44.38,5.39,-10.71,8,927
-0.5851,0.1986,0.8672,-12.95,6.79,-2.52,2,796
-0.6041,0.2079,0.8213,-10.43,4.76,1.4,8,624
-0.5978,0.1952,0.813,-8.61,2.24,-1.61,7,445
-0.5778,0.1293,0.833,-10.64,2.24,-5.18,48,306
-0.5807,0.1191,0.8345,-8.12,8.61,-7.7,132,128
-0.6017,0.1381,0.8281,0.98,11.97,-9.73,229,33
-0.5832,0.1244,0.8428,6.23,18.06,-9.87,336,17
-0.5666,0.1415,0.8838,5.32,33.81,-11.62,471,15
-0.5275,0.0986,0.9662,0,70.28,-12.6,582,12
-0.4709,0.0712,1.0238,0.7,132.44,-13.93,670,11
-0.4651,0.2923,1.0253,-2.24,218.05,-28.28,708,11
-0.3416,0.4587,0.9955,-40.32,335.16,-73.43,544,12
-1.7192,-0.1576,1.0936,-102.13,444.22,-78.96,131,16
-2.8865,0.283,1.2434,35.84,377.3,-122.99,15,14
-0.8355,0.977,2.359,-46.76,73.29,-76.86,12,16
0.6149,0.693,1.2434,-35.98,-122.15,-43.96,15,8
-0.2621,0.3782,0.976,0.63,-187.11,11.48,12,9
-0.405,0.2723,0.7144,-16.94,-254.66,73.99,10,13
-0.6852,0.2806,0.6754,14.56,-275.03,88.48,14,12
-1.1522,0.0869,0.7979,23.52,-300.02,75.6,15,9
-1.3171,0.3938,0.8267,39.41,-304.71,76.93,13,8
-1.5621,0.5397,0.937,30.94,-283.01,88.48,16,6
-2.1335,0.4934,0.8267,48.3,-277.48,132.23,9,6
-2.035,-0.2811,0.3187,116.27,-214.55,166.6,5,12
-2.2116,-0.3963,-0.4914,102.13,-131.25,118.44,7,9
-1.91,-0.8403,-1.1722,108.36,-25.62,-3.99,7,0
-0.3543,-1.1063,0.1972,-350.7,143.36,35,6,319
-2.3375,-0.468,2.0857,-204.68,223.23,-38.22,8,858
-1.6934,1.3522,0.6193,261.45,157.85,-73.01,3,1002
-0.7784,-0.915,0.5231,-105.35,20.58,-32.55,4,992
-0.4441,0.6398,0.9906,-50.96,11.69,-13.3,7,904
-0.5388,0.2938,0.8994,-2.66,8.26,-3.36,12,744
-0.6066,0.2108,0.815,-3.22,2.1,1.26,69,452
-0.5817,0.1737,0.8276,-7.21,4.06,-3.22,141,207
-0.5827,0.1132,0.8311,-2.52,11.06,-3.15,220,44
-0.588,0.1327,0.8286,2.87,14.91,-4.62,288,24
-0.5924,0.1235,0.8257,-0.07,20.23,-8.33,391,22
-0.5836,0.161,0.8647,-4.2,34.37,-11.13,511,15
-0.5632,0.1049,0.9038,-1.75,62.16,-11.34,616,8
-0.5285,0.1249,0.9775,-6.51,107.38,-13.09,686,15
-0.5197,0.1732,0.9789,4.55,174.86,-13.72,719,12
-0.4353,0.487,1.0458,-5.53,278.18,-51.59,634,18
-0.9023,0.3279,1.0726,-95.9,401.17,-93.17,255,10
-1.8681,0.5148,1.1453,-11.83,458.78,-95.27,23,17
-2.0159,0.4792,1.3532,58.31,259.98,-140.07,11,13
-0.7681,0.8398,1.993,69.16,-118.23,-44.59,15,12
0.2045,0.3079,0.9672,-36.75,-140,-2.8,3,7
-0.4826,0.3211,0.8618,21.42,-221.48,80.22,15,7
-0.527,-0.0932,0.6456,29.68,-275.45,98.35,16,8
-0.8901,-0.0034,0.7403,45.29,-282.17,73.36,16,8
-1.2654,0.1118,0.7979,72.66,-300.65,62.37,13,7
-1.2581,0.1815,0.9135,48.02,-288.54,76.3,16,7
-1.8076,0.3348,1.0082,39.9,-276.92,86.03,15,4
-2.1189,0.0327,0.6739,99.4,-260.05,118.16,11,5
-2.0823,-0.1474,-0.0254,92.4,-198.59,110.32,19,3
-2.257,-0.6891,-0.977,92.47,-82.67,52.43,13,12
-1.0658,1.0975,-0.9682,-187.39,139.79,-72.24,10,8
1.3518,-1.0287,1.6221,158.69,285.04,8.33,9,497
-1.95,-1.1063,1.4376,-63.91,151.62,-94.92,7,929
-1.3869,1.1717,0.9697,-130.76,10.15,-33.18,5,1000
-0.6793,0.1122,0.8418,62.02,3.64,-14.98,2,972
-0.6061,-0.1723,0.8233,-11.34,5.39,-6.72,8,844
-0.611,0.0649,0.8135,-7.42,4.9,0.84,20,615
-0.5973,0.1698,0.8189,-12.6,6.79,-0.98,40,414
-0.6041,0.1557,0.8154,-7.7,6.16,-4.13,106,220
-0.5954,0.1405,0.8252,-2.66,8.4,-5.39,161,60
-0.6198,0.141,0.8111,0.49,11.76,-7,256,23
-0.5983,0.1635,0.8364,4.34,17.22,-10.43,378,22
-0.5832,0.1664,0.8862,3.85,35.98,-13.09,487,22
-0.5417,0.103,0.9536,1.05,82.6,-13.93,609,9
-0.4978,0.0683,1.0004,-0.49,143.36,-14.42,677,17
-0.4529,0.1781,1.0619,19.04,226.66,-16.73,646,19
-0.3426,0.5705,1.0336,-39.41,361.27,-61.18,480,16
-1.7387,-0.1132,1.0853,-34.58,470.19,-53.69,106,13
-2.8572,0.4158,1.1761,81.97,369.6,-110.67,17,20
-1.2688,0.6734,2.462,-39.27,42.91,-83.93,7,9
0.489,0.2547,1.1663,1.96,-133.91,-53.62,10,16
-0.1357,0.7754,0.9423,27.23,-192.15,37.03,13,9
-0.4763,0.0727,0.7271,1.82,-264.11,99.05,9,10
-0.874,0.0161,0.7637,50.82,-283.01,95.2,7,14
-1.1292,-0.1371,0.8208,60.06,-309.12,51.1,11,8
-1.1034,0.0971,0.8716,46.9,-290.78,49.98,16,10
-1.567,0.182,1.14,32.13,-273.42,67.69,16,4
-2.0955,0.1967,1.0189,48.79,-298.2,85.47,6,12
-2.1726,-0.2269,-0.0747,96.04,-237.86,87.85,10,8
-2.2672,-0.6344,-1.0507,133.84,-143.71,49.91,8,3
-1.5543,2.0559,-2.1028,-70.7,55.44,-118.44,7,8
0.0693,-0.7091,2.5962,-77.14,215.11,-13.65,9,467
-2.0935,-0.8213,1.3586,-56.07,148.89,-75.46,8,928
-2.4873,1.3664,0.8818,-30.03,21.49,-71.12,3,979
-0.649,-0.2582,0.9994,63.91,3.64,-15.89,10,960
-0.6188,-0.0986,0.8184,-24.08,4.55,-3.78,8,843
-0.6227,0.1669,0.8272,-14.7,2.45,0.35,8,649
-0.5968,0.1918,0.8218,-12.95,1.89,-0.14,13,475
-0.5812,0.1757,0.832,-6.23,6.44,-2.03,31,300
-0.5954,0.1493,0.8228,-4.27,9.1,-4.2,82,97
-0.5944,0.1327,0.8145,-5.18,14.84,-6.65,167,25
-0.6061,0.1342,0.8179,3.78,20.65,-7.07,259,20
-0.5973,0.1274,0.8428,3.29,30.87,-8.47,379,25
-0.5568,0.1523,0.8906,-1.12,56.98,-10.64,492,16
-0.5217,0.1732,0.9931,5.18,102.34,-12.95,596,7
-0.4778,0.123,0.9921,2.45,177.1,-14.42,633,12
-0.4187,0.284,0.9999,2.8,274.33,-27.16,569,14
-0.6734,0.1078,0.9614,-68.95,419.65,-37.31,290,11
-2.0442,0.2967,1.0302,41.3,472.08,-22.96,33,11
-2.6811,0.3538,1.5245,131.6,269.08,-65.45,10,10
-1.7675,0.6032,2.4073,2.1,-108.36,-100.52,11,16
-0.1059,0.2411,0.9975,39.27,-170.87,-76.58,14,4
-0.4016,0.4968,0.8276,7.56,-239.54,27.16,14,9
-0.5617,0.0195,0.6686,9.45,-280.49,96.11,16,7
-1.0092,-0.0439,0.8325,31.22,-294,73.64,12,10
-1.1966,0.0439,0.8394,87.22,-326.27,29.33,3,15
-1.3415,0.3509,0.9389,71.68,-310.38,28.63,12,2
-1.791,0.5754,0.9945,51.31,-290.92,73.43,4,11
-2.3634,-0.1054,0.6988,83.44,-255.01,155.26,7,10
-2.1726,0.2206,-0.1654,60.97,-193.13,173.04,8,9
-2.3673,-1.4045,-1.4518,62.93,-45.29,81.62,10,10
-1.7363,0.3309,-1.3313,-190.89,190.47,-58.59,0,48
-0.8438,0.5412,1.0629,29.33,304.71,-36.33,8,653
-1.2888,0.0415,0.7159,9.52,123.76,-68.25,6,1037
-0.7715,-0.551,0.5768,-295.33,20.16,-32.13,4,1040
-0.5368,0.5661,0.8852,28.42,5.11,-11.2,7,972
-0.6305,0.0561,0.852,22.33,5.39,-2.8,7,815
-0.5866,0.1786,0.813,1.96,7.35,0.07,9,597
-0.5832,0.164,0.8174,-12.88,1.4,-2.66,28,424
-0.5856,0.1249,0.8316,-11.06,4.97,-2.94,90,277
-0.5949,0.1684,0.8208,-4.13,5.6,-4.97,164,98
-0.5851,0.1469,0.8345,1.89,7.77,-9.24,260,23
-0.5617,0.1313,0.8677,5.32,20.09,-11.97,378,28
-0.5466,0.1532,0.9062,2.45,42.35,-13.65,490,18
-0.5222,0.1059,0.956,-1.54,80.43,-15.12,624,7
-0.4948,0.0634,1.0228,-8.19,139.65,-16.38,704,15
-0.4831,0.2523,1.0116,0.49,224.28,-26.53,714,16
-0.3362,0.5344,0.9999,-43.96,364.91,-80.15,538,11
-1.7548,-0.3787,1.0736,-88.27,456.26,-77.56,120,11
-2.6293,0.4255,1.1531,28.84,373.73,-130.48,11,18
-0.6739,0.9726,2.3526,-37.31,83.93,-74.9,8,6
0.6705,0.6827,1.2122,-43.68,-144.06,-32.69,13,11
0.0625,0.5026,0.8228,14,-190.89,19.25,19,16
-0.5944,0.2518,0.6998,0.49,-270.69,78.61,13,0
-0.6876,0.1566,0.6222,38.15,-291.69,97.65,13,7
-1.1336,0.0381,0.7901,41.09,-295.26,75.32,10,11
-1.3615,0.0927,0.8794,70.42,-302.96,66.85,18,6
-1.4674,0.4265,1.0185,49.28,-294.91,80.08,12,11
-2.0594,0.2582,0.893,67.69,-276.15,116.2,14,8
-2.4888,0.1893,-0.202,103.18,-215.67,132.65,15,5
-2.3566,-0.5026,-0.9614,102.62,-135.31,103.39,11,3
-2.1228,-0.2757,-2.7016,-231.42,96.11,-23.17,11,10
0.8969,-1.0824,2.0842,153.72,311.43,16.45,2,533
-1.3113,-0.2303,0.5485,-0.28,132.65,-62.65,7,913
-0.6739,-0.0283,1.5528,-320.18,29.19,-29.82,7,953
-0.6695,0.3436,0.8428,62.09,-1.61,-9.24,4,930
-0.5968,-0.0356,0.8359,14,0.14,-4.9,9,824
-0.5807,0.1269,0.8389,-3.29,1.05,0.63,28,604
-0.5802,0.1547,0.8306,-7.7,4.55,-2.66,67,384
-0.5793,0.1488,0.8379,-5.18,6.09,-5.18,138,171
-0.5802,0.1039,0.8457,-0.42,12.6,-5.18,222,44
-0.6032,0.1103,0.8169,-0.84,13.3,-8.68,316,23
-0.5905,0.1044,0.8394,-1.19,19.53,-9.38,408,24
-0.5563,0.1649,0.8652,-3.15,33.46,-13.44,510,15
-0.5549,0.1098,0.914,-6.16,61.81,-16.73,629,11
-0.5183,0.1025,0.9862,-4.69,107.8,-14.77,718,12
-0.488,0.1776,0.9989,-4.41,177.38,-16.87,774,12
-0.4158,0.5871,1.0082,-11.13,286.72,-67.2,708,8
-1.1048,0.3777,1.2073,-127.47,427.56,-115.85,239,12
-2.256,0.2806,1.3088,-22.19,448.77,-104.51,20,9
-1.6104,0.6124,1.2454,36.54,241.78,-144.55,12,12
0.4529,1.0775,1.6514,35.49,-134.19,-5.88,16,7
0.1362,0.2489,0.954,-20.58,-137.97,22.89,12,8
-0.6193,0.3719,0.8725,5.95,-245,76.58,16,12
-0.4875,0.1425,0.6046,18.69,-287.42,87.64,12,8
-1.1775,0.0742,0.7686,36.89,-300.02,83.58,12,14
-1.161,0.0786,0.7588,75.11,-314.3,66.29,13,10
-1.3498,0.3045,0.8872,69.51,-286.02,58.66,12,6
-1.9666,0.3382,1.0277,55.16,-262.99,86.8,13,10
-2.2658,0.1005,0.631,100.8,-253.82,158.41,11,9
-2.4595,-0.6398,-0.0395,38.29,-178.85,146.93,11,6
-2.0359,-0.7413,-1.1644,71.61,-48.09,60.62,6,8
-2.4795,-0.4026,-1.2015,-346.43,157.92,-9.52,16,105
-1.8207,0.6754,1.5152,-50.05,273.14,-4.55,7,682
-1.6348,0.0224,0.3904,91.28,131.18,-43.05,8,937
-0.6461,-0.6876,0.7452,-82.11,3.01,-11.69,7,956
-0.5402,0.4675,0.9111,-37.45,1.54,-9.38,10,895
-0.5724,0.2635,0.8882,2.87,-1.4,-3.15,12,760
-0.5661,0.1537,0.8335,3.64,2.73,0.42,53,541
-0.5685,0.1181,0.8389,-4.97,4.41,-3.78,108,355
-0.5924,0.0976,0.8359,-4.62,6.23,-4.55,173,148
-0.5846,0.1171,0.8311,0.98,9.66,-4.83,261,34
-0.5978,0.1405,0.8291,0.14,11.48,-8.12,348,24
-0.5851,0.1396,0.8477,1.12,18.48,-10.08,447,19
-0.5383,0.1664,0.8852,-1.89,38.99,-13.72,554,21
-0.51,0.1078,1.0033,-5.25,78.47,-16.73,673,12
-0.487,0.0712,1.018,-4.41,144.62,-12.04,744,10
-0.5241,0.3372,0.9897,-5.6,217.49,-26.25,777,12
-0.3889,0.6305,0.9433,-22.89,336.35,-86.1,628,10
-1.7578,-0.1435,1.0463,-127.33,432.11,-109.83,180,13
-2.3351,0.3035,1.4518,-35.49,424.69,-121.8,15,14
-1.3254,0.8306,1.2024,25.76,224.49,-150.71,13,8
0.3084,1.1902,1.506,30.38,-169.47,-5.18,11,11
0.022,0.1654,0.7701,-7.28,-173.11,30.24,20,11
-0.5241,0.3026,0.7862,-6.44,-243.81,84.91,15,9
-0.547,0.1098,0.5822,27.79,-298.55,101.22,13,9
-1.099,0.1347,0.8159,17.08,-301.98,87.85,11,10
-1.2654,0.264,0.8638,40.11,-330.05,87.57,10,14
-1.4557,0.5285,1.0497,19.39,-313.46,105.7,7,13
-2.2087,0.5846,1.118,8.96,-286.79,144.06,11,12
-2.5088,0.1332,0.3689,35.98,-273.49,180.74,7,14
-2.9075,-0.2991,-1.1771,76.72,-113.05,177.1,14,7
-2.0921,-0.041,-1.5933,23.38,123.9,0.91,11,11
0.6744,-1.4586,2.094,103.74,301.7,1.61,14,565
-2.3214,-0.2826,1.0453,17.64,139.72,-96.95,14,1004
-1.0853,-0.6544,1.0887,-367.29,54.18,-33.04,7,994
-0.6666,0.6261,0.8901,44.52,-2.24,-14.63,7,935
-0.6481,0.0112,0.8696,24.57,0.42,-7.14,9,801
-0.5978,0.1283,0.8486,-5.04,1.05,2.45,46,588
-0.5768,0.1542,0.834,-7.77,3.99,2.17,75,351
-0.589,0.1459,0.8189,-1.82,6.09,-1.47,108,126
-0.5807,0.142,0.8213,-5.04,9.03,-3.78,156,28
-0.5944,0.12,0.8306,-2.45,11.69,-6.09,253,19
-0.6022,0.1293,0.8369,2.52,19.04,-8.96,370,24
-0.5651,0.1786,0.8872,2.45,34.72,-12.53,470,9
-0.5495,0.0903,0.9496,2.1,67.69,-11.62,565,9
-0.4997,0.1157,1.0038,-2.1,121.24,-14.35,660,7
-0.4939,0.223,1.0272,5.39,200.06,-14.35,704,10
-0.3533,0.4807,1.0165,-16.8,319.55,-59.78,627,13
-1.4196,0.1244,1.1439,-123.55,464.38,-89.53,220,18
-2.6274,0.4329,1.3893,-33.32,440.09,-118.72,20,9
-1.4811,1.1024,1.5313,7.77,197.61,-109.69,7,9
0.7906,0.9862,1.4835,-73.43,-125.3,-40.95,15,7
-0.1732,0.4465,0.9994,-41.86,-193.55,-21.35,17,12
-0.5036,0.5714,0.7266,-48.02,-282.8,26.95,15,7
-0.7198,0.4758,0.4856,-9.52,-321.23,73.43,12,12
-1.2278,0.5212,0.6242,6.02,-317.17,84.84,12,9
-1.4372,0.73,0.6695,8.47,-318.43,102.76,16,6
-1.5216,0.8477,0.7974,-9.66,-268.94,144.62,16,11
-2.0208,0.6969,0.916,23.66,-254.24,196.7,11,12
-1.9871,0.2362,0.528,44.94,-216.09,204.54,9,8
-2.4039,-0.1776,-0.4299,131.46,-131.46,163.66,5,10
-2.2306,-0.6817,-1.3132,82.04,-6.51,28.35,4,5
-0.7501,-0.303,-0.4812,-411.53,213.22,-7.84,12,234
-3.3047,-0.6617,2.1487,-83.09,265.44,-60.9,7,896
-1.4967,2.2326,0.6759,240.52,143.29,-54.11,8,1065
-0.6251,-0.9252,0.1976,-129.78,30.31,-31.36,8,1063
-0.5353,0.6632,0.9809,-27.44,3.99,-14.77,7,976
-0.59,0.224,0.8745,9.31,8.33,-3.64,3,815
-0.6061,0.2235,0.8169,0.63,4.34,0.84,6,594
-0.5734,0.205,0.8262,-12.39,3.08,-1.26,14,397
-0.5954,0.1181,0.8223,-7.77,4.48,-2.66,32,224
-0.59,0.1532,0.8125,-7.49,5.53,-5.25,101,63
-0.5685,0.1645,0.8306,-6.79,8.61,-8.89,187,15
-0.5568,0.1205,0.8735,3.22,19.81,-11.34,313,19
-0.5417,0.1703,0.8984,4.9,42.14,-13.93,446,16
-0.5178,0.0517,0.9819,0.63,79.45,-13.3,573,12
-0.449,0.0795,1.0277,5.95,148.26,-12.25,659,13
-0.4338,0.3343,1.0272,6.65,236.74,-33.25,672,13
-0.327,0.5163,1.0951,-65.73,369.88,-85.75,470,12
-1.9076,0.0068,1.1478,-2.8,467.81,-94.15,66,13
-2.4942,0.8438,1.5108,17.57,307.51,-161.7,19,15
-2.2594,0.0181,2.4868,-16.45,-79.45,-52.92,15,16
0.4143,0.7623,1.0956,-61.67,-132.23,-35.77,13,11
-0.3699,0.3743,0.8974,-18.34,-229.95,41.16,13,7
-0.5261,0.3104,0.6539,-16.94,-285.74,84.56,12,17
-0.8237,0.3758,0.6476,9.38,-291.97,85.26,12,12
-1.2703,0.1957,0.8159,50.61,-308.77,63.28,9,7
-1.4362,0.7305,0.8589,62.02,-313.95,73.22,13,12
-1.8969,0.5973,1.0409,59.22,-270.27,147.84,16,14
-2.4429,0.3104,0.7437,72.52,-218.89,206.22,12,7
-2.5464,-0.0215,-0.4046,79.8,-182.21,197.4,7,9
-2.5513,-1.5118,-1.8954,119,-34.44,46.27,8,8
-1.8183,-0.489,0.0356,-485.87,170.1,-76.79,14,224
-2.6977,0.1493,2.1692,8.12,304.85,-39.2,12,844
-2.1848,1.2849,0.5866,231.84,138.25,-55.09,8,996
-0.8369,-0.7515,0.6773,-49.56,0.77,-22.96,7,1000
-0.5627,0.5104,0.9062,-29.96,1.68,-9.45,7,922
-0.5861,0.2674,0.8921,8.12,0.7,-1.61,16,764
-0.5622,0.2103,0.8316,-3.99,2.45,1.47,47,541
-0.5783,0.163,0.833,-1.82,3.22,-0.91,74,346
-0.6124,0.0898,0.8501,3.43,3.43,-4.06,120,162
-0.5754,0.1074,0.8223,-4.34,9.45,-4.2,167,46
-0.589,0.1435,0.8291,-3.71,10.36,-7.91,275,24
-0.5612,0.1464,0.8589,3.57,19.11,-12.04,388,18
-0.5529,0.1581,0.9004,3.99,40.6,-14.7,496,20
-0.4948,0.1176,0.9965,5.18,84.63,-14,608,19
-0.4763,0.0532,1.0106,-5.74,149.73,-14.28,685,12
-0.468,0.2948,1.0063,-2.17,237.72,-40.46,694,14
-0.4075,0.5017,0.9999,-42.42,367.57,-91.49,510,13
-1.7885,-0.3948,1.1341,-79.59,450.45,-95.34,111,6
-2.6445,0.7105,1.361,44.03,387.66,-145.39,15,15
-0.8384,0.8672,2.0838,-23.17,98.63,-89.81,13,12
0.7813,0.7681,1.2337,-69.09,-130.06,-17.01,14,15
-0.2352,0.2835,0.9482,39.41,-183.68,43.68,15,20
-0.5422,0.2528,0.7627,-7.98,-278.04,87.43,15,16
-0.5885,0.1669,0.6793,35.77,-300.44,101.22,11,10
-1.1697,0.1357,0.9028,53.41,-333.27,87.57,14,12
-1.4518,0.3509,1.036,77.91,-333.76,93.94,12,13
-2.1794,0.549,1.2556,29.26,-351.33,130.41,16,11
-2.7089,-0.2108,0.5505,118.23,-301.21,154.28,15,6
-2.4463,-0.5583,-0.856,101.22,-156.24,146.79,8,3
-1.6919,-0.0737,-1.8549,-15.4,21.42,67.34,3,16
-1.1634,-0.305,-0.1205,-508.55,202.58,-79.1,11,183
-2.5049,0.0273,1.7051,93.8,300.3,-49,7,816
-1.9764,0.9784,0.649,196.63,146.93,-48.02,8,984
-0.7442,-0.7354,0.6578,-9.24,6.23,-21.77,8,984
-0.5441,0.3475,0.8965,-44.17,5.25,-7,4,920
-0.5563,0.2225,0.8843,7.63,3.78,-1.05,8,785
-0.5749,0.1952,0.833,1.75,3.15,2.1,15,556
-0.5944,0.1879,0.8145,-11.41,4.13,-3.08,23,370
-0.5788,0.1186,0.8379,-5.81,4.55,-4.06,87,208
-0.5851,0.1044,0.8247,-1.05,8.33,-3.64,137,63
-0.5998,0.1391,0.8257,1.89,13.23,-5.6,223,21
-0.5856,0.1615,0.8506,3.08,22.12,-9.66,324,22
-0.5485,0.1552,0.894,2.38,41.3,-13.16,456,13
-0.5295,0.0615,0.9555,-3.92,80.43,-15.4,580,12
-0.4958,0.0791,1.0014,-3.15,137.34,-17.78,662,9
-0.4241,0.2679,1.0643,7.91,224.14,-26.88,666,14
-0.2952,0.5148,1.0965,-40.39,372.19,-62.3,467,8
-1.9549,-0.3133,1.139,-39.13,492.94,-59.43,100,20
-2.9851,0.568,1.3742,110.81,331.59,-121.94,17,17
-1.6236,0.4631,2.1692,-11.34,30.24,-100.94,14,10
0.4124,0.772,1.2449,-18.9,-115.01,-79.87,12,11
-0.182,0.2577,0.8359,30.1,-194.67,26.74,13,3
-0.5817,0.2889,0.7047,-17.29,-274.33,112.14,6,7
-0.8984,0.286,0.6554,13.79,-305.48,118.93,19,18
-1.1844,0.1635,0.6764,37.45,-303.24,81.62,11,14
-1.3693,0.3792,0.8735,30.1,-274.82,92.19,2,11
-1.9754,0.4543,1.0614,20.16,-273.56,109.62,7,12
-2.2067,0.1157,0.7671,58.1,-278.95,115.36,7,10
-1.8954,-0.2562,0.0649,113.12,-194.04,112.49,9,8
-2.3697,-0.6808,-1.179,116.2,-103.25,72.94,9,12
-2.3575,1.5289,-0.3865,-22.96,56.98,-14.63,13,9
-1.0902,-0.9628,2.2414,-385.14,125.3,-19.88,8,320
-2.1765,-1.0141,1.7661,-80.01,196.14,-105.56,8,954
-1.5933,1.4162,0.9262,-198.73,-41.3,-16.66,9,1016
-0.5773,-0.1791,0.9448,74.9,4.83,-9.24,9,1010
-0.5373,-0.0903,0.8442,-20.16,0.98,-0.42,7,933
-0.5671,0.1781,0.853,-8.26,2.87,3.71,4,791
-0.5636,0.2035,0.8272,-3.85,0.77,2.17,9,618
-0.5705,0.1864,0.8276,-8.12,-1.61,-1.89,5,498
-0.568,0.1142,0.8374,-2.03,0.21,-0.63,5,448
-0.5549,0.1566,0.8345,-2.03,4.83,-3.78,27,372
-0.5431,0.1684,0.8574,-0.91,10.22,-10.01,131,186
-0.5388,0.1274,0.8906,6.79,26.39,-13.44,259,33
-0.5383,0.1244,0.9155,8.75,53.2,-11.9,396,23
-0.5144,0.144,0.9584,-2.03,87.15,-15.05,521,22
-0.5163,0.0839,0.976,-7.07,142.87,-14.91,604,21
-0.4807,0.3167,1.0643,-3.5,217.77,-32.13,626,16
-0.3362,0.5168,1.1204,-51.73,351.54,-77.98,472,11
-1.669,-0.3514,1.2,-63.7,469.84,-72.17,112,19
-2.8338,0.2098,1.405,85.33,372.47,-97.58,15,18
-1.3903,0.6066,2.2121,-51.03,25.83,-78.4,7,6
0.4748,0.184,1.1692,31.64,-111.3,-46.06,15,8
-0.1815,0.3479,0.9048,38.99,-199.08,49.98,17,12
-0.5592,0.0639,0.8247,32.9,-269.15,113.68,11,7
-0.814,-0.0678,0.8584,63.14,-288.89,108.36,6,0
-1.3113,-0.1703,0.9209,86.24,-322.35,68.6,14,7
-1.2449,0.1308,0.9862,63.7,-304.71,46.55,11,6
-1.6655,0.3767,1.159,39.48,-275.8,57.96,5,7
-2.4776,-0.1874,0.9189,88.55,-280.49,115.01,7,11
-2.1589,-0.0932,-0.2181,83.37,-223.65,126.91,11,15
-2.3995,-1.1322,-1.4591,78.47,-60.9,48.37,4,11
-1.5943,0.6744,0.9555,90.09,46.55,-49.63,12,11
0.9106,-0.0288,0.8608,-33.18,227.01,-57.19,14,496
-2.2346,-0.1889,1.5626,-67.97,179.62,-103.88,5,988
-2.7157,1.7036,0.9658,-50.54,19.32,-55.79,7,1052
-0.7989,-0.2147,1.1341,48.16,1.05,-14.91,8,1029
-0.6207,-0.0376,0.8164,-20.16,4.13,-4.83,10,934
-0.5807,0.0971,0.8457,-4.48,5.39,1.47,13,761
-0.5846,0.1937,0.8228,-7.56,0.84,4.48,5,588
-0.5822,0.1703,0.8252,-14,2.24,-0.63,13,395
-0.5856,0.1308,0.8208,-8.96,1.33,-3.29,33,300
-0.5666,0.1283,0.8389,-6.3,6.37,-4.97,91,206
-0.5871,0.1606,0.8394,3.01,9.73,-10.71,195,66
-0.5514,0.1298,0.8799,4.9,21.63,-14.77,318,32
-0.5139,0.1161,0.9433,9.03,53.2,-14.42,446,24
-0.5022,0.0649,0.9882,4.34,101.22,-14.35,560,19
-0.4631,0.102,1.0009,9.31,168.28,-11.97,604,22
-0.4275,0.3235,1.0687,-3.01,262.08,-33.74,565,11
-0.5685,0.2279,1.1268,-80.85,404.46,-75.04,310,10
-1.9647,0.1596,1.1995,33.53,481.88,-59.43,31,17
-2.542,0.4748,1.5782,106.54,280.63,-99.68,13,15
0.5695,0.8818,1.7685,51.87,-115.08,-49.91,16,15
0.0756,0.182,1.0404,39.06,-162.05,-6.51,11,7
-0.4451,0.2884,0.8784,24.15,-244.86,68.39,7,8
-0.5524,-0.0312,0.7218,50.19,-291.13,90.58,18,7
-1.0116,-0.1279,0.8872,68.53,-303.17,66.5,16,9
-1.2346,-0.0464,0.9394,99.33,-313.32,39.48,9,12
-1.5172,0.3099,1.1414,54.88,-304.01,47.46,3,5
-2.0125,0.3323,1.1424,49.98,-288.82,90.23,7,8
-2.4263,-0.0737,0.5022,112.84,-265.93,156.45,8,7
-2.3004,-0.7213,-0.8921,57.05,-167.16,114.94,7,12
-2.0506,-0.4236,-1.4123,50.26,32.48,12.11,6,11
0.0293,0.1342,0.0649,-379.96,225.05,-67.13,6,228
-2.093,-0.8516,1.8446,-87.57,283.08,-24.36,3,795
-1.4967,0.8096,0.5417,123.76,159.74,-50.82,8,1054
-0.7652,-0.5158,0.6163,-214.2,27.02,-28,3,1043
-0.712,0.4743,0.8525,11.13,2.94,-11.83,6,981
-0.6246,0.0444,0.8613,12.11,8.26,-3.22,5,839
-0.6022,0.1703,0.8194,3.43,3.57,2.38,6,647
-0.5988,0.1669,0.7984,-8.61,-1.33,1.33,8,483
-0.6002,0.1547,0.8218,-14.28,-1.26,-0.98,7,391
-0.5861,0.1444,0.8272,-11.69,2.24,-2.03,19,281
-0.5802,0.1771,0.8237,-5.04,6.44,-5.46,83,146
-0.5602,0.1235,0.835,2.52,14.84,-9.87,187,50
-0.5544,0.1103,0.8794,5.25,33.67,-10.43,303,31
-0.5148,0.1859,0.9521,9.52,62.65,-12.95,437,28
-0.5056,0.1137,0.9902,12.04,118.93,-14.84,540,15
-0.466,0.3109,0.9682,7.49,204.12,-17.85,586,15
-0.3665,0.4641,1.0477,-15.89,322.42,-51.31,476,19
-1.6641,0.0005,1.0853,-70.14,443.73,-68.67,114,15
-2.8582,0.2884,1.3235,68.67,374.78,-93.45,20,11
-0.426,1.0677,2.2868,44.45,96.46,-92.19,16,15
0.5095,0.4577,1.2434,8.89,-125.79,-82.39,10,5
-0.2899,0.8135,0.956,35.63,-185.36,5.95,13,10
-0.4543,0.2747,0.7501,6.37,-257.53,85.82,18,11
-0.7383,0.1571,0.733,34.58,-285.46,110.81,12,12
-1.1097,-0.1137,0.8794,51.31,-307.16,82.25,10,6
-1.3274,0.1996,0.9355,62.93,-313.74,55.37,10,7
-1.565,0.468,1.1082,45.78,-294.63,64.33,8,8
-2.4034,0.0254,0.9653,68.46,-276.99,111.16,10,4
-2.3209,0.0156,0.0288,129.92,-219.31,167.44,6,7
-2.7177,-0.6778,-1.3557,-4.2,-110.18,115.22,9,8
-1.6363,-0.3753,-1.4708,-75.18,131.32,-54.6,6,6
0.2572,-1.2259,0.9804,89.81,284.97,-41.16,6,535
-1.8925,-0.2933,1.6538,-62.93,149.59,-85.75,12,940
-0.285,-0.2499,1.648,-288.12,36.96,-29.68,11,978
-0.5929,0.3055,0.8208,29.19,3.15,-12.04,12,944
-0.5695,0.0644,0.8882,-7.42,2.24,-4.48,7,855
-0.5895,0.12,0.8442,-4.9,0,3.29,10,675
-0.5714,0.1566,0.8164,-2.1,3.08,2.03,21,487
-0.5832,0.1508,0.8237,-5.39,4.27,-1.68,42,335
-0.5851,0.1449,0.8276,-6.79,4.69,-3.43,87,143
-0.5812,0.143,0.8208,-5.46,5.95,-5.81,139,52
-0.5871,0.1362,0.8369,-2.1,9.8,-9.31,234,26
-0.5661,0.1142,0.8716,3.22,25.06,-11.48,348,15
-0.5485,0.1244,0.9082,5.74,48.65,-11.41,456,18
-0.5183,0.1366,0.9804,5.67,88.41,-13.44,556,8
-0.4973,0.0488,0.977,4.69,151.9,-14.14,624,7
-0.4265,0.2987,1.0321,0.7,233.31,-23.24,618,15
-0.5314,0.3353,1.1317,-64.33,406.77,-78.26,321,10
-1.991,0.2274,1.2381,30.31,453.04,-79.17,39,19
-2.0408,0.4153,1.4079,88.9,257.74,-100.66,15,20
0.102,0.8721,2.0486,40.04,-93.52,-96.46,14,10
0.1186,0.2952,1.0321,37.03,-129.78,-62.3,15,12
-0.4168,0.428,0.8179,-4.2,-225.61,78.26,14,8
-0.6695,0.1693,0.7032,14.35,-267.19,121.31,13,9
-1.0497,0.0429,0.7666,16.31,-279.79,97.79,13,8
-1.2976,0.1352,0.8003,34.16,-282.66,75.04,16,10
-1.3,0.181,0.9545,25.34,-281.47,78.05,3,14
-1.4201,0.3426,0.9872,35.28,-252.63,79.87,7,8
-2.3746,0.0054,0.893,45.78,-228.34,83.86,8,9
-2.3234,-0.6617,-0.0215,101.85,-204.61,77.35,12,10
-1.9764,-0.6149,-1.2205,103.25,-99.75,8.12,5,10
-2.0789,-0.8159,-1.2546,-290.22,124.46,-128.8,10,24
-1.2234,0.2987,1.1556,337.89,299.25,-36.54,7,655
-1.3186,-0.5451,0.467,3.92,105.49,-34.58,5,935
-1.0785,-0.1254,0.7452,-250.53,5.81,-14.63,12,959
-0.6329,0.3562,0.8847,32.41,-0.42,-6.23,1,952
-0.5817,-0.0029,0.8584,12.04,1.61,-0.91,8,838
-0.5729,0.1586,0.8491,-4.34,0.07,3.57,8,678
-0.5778,0.2001,0.8281,-0.28,-1.19,-0.56,13,502
-0.5724,0.1322,0.8325,-4.13,1.12,-3.92,44,362
-0.5636,0.1723,0.8584,-0.28,5.04,-3.85,102,223
-0.5841,0.1405,0.8418,-2.24,10.78,-5.39,173,63
-0.5714,0.141,0.8535,2.03,17.43,-5.18,263,22
-0.5807,0.1093,0.8584,3.5,29.26,-5.25,356,25
-0.5675,0.1723,0.8623,3.29,44.24,-8.19,465,23
-0.5495,0.1181,0.9267,-2.03,70.35,-10.5,546,12
-0.5285,0.0903,0.9555,-0.49,130.48,-12.67,647,15
-0.5134,0.3128,0.9999,-10.64,197.75,-34.51,651,16
-0.4089,0.3406,0.9858,-31.64,308.35,-62.51,518,15
-1.4391,-0.2137,1.035,-75.04,423.43,-68.46,124,21
-2.9163,0.0795,1.2098,81.83,362.11,-70.56,16,16
-0.9052,1.0448,2.0691,100.45,73.99,-64.05,11,10
0.4831,0.5656,1.1795,28.63,-112.77,-65.94,12,7
-0.0527,0.3972,0.9799,76.58,-154.21,29.05,11,1
-0.5505,0.041,0.8755,44.03,-236.11,106.26,16,3
-0.8423,-0.1542,0.8389,92.82,-280.42,110.88,14,12
-0.9745,-0.3323,0.8628,96.74,-288.05,55.3,10,8
-1.1878,-0.1293,0.9331,99.4,-275.1,21.63,13,9
-1.403,-0.0737,1.1351,74.34,-265.16,23.66,12,7
-1.7934,-0.0137,1.1385,95.41,-273.63,44.52,7,7
-2.136,-0.1488,0.5588,102.13,-247.87,82.11,10,6
-2.0408,-0.9038,-0.7681,88.48,-154.63,58.59,10,6
-1.7929,-0.2874,-1.1488,48.51,10.08,-16.17,9,12
-0.2733,-0.751,1.3508,-411.46,98.49,-87.43,11,263
-2.9822,0.5041,1.9125,-92.89,220.22,-33.18,10,832
-1.3361,0.4885,0.835,82.74,120.05,-32.2,10,984
-0.8647,-0.1932,0.7559,-24.15,11.13,-22.89,6,965
-0.6032,0.1576,0.8852,-0.98,4.69,-5.39,8,872
-0.6163,0.1039,0.8457,-1.47,5.74,1.68,3,737
-0.5973,0.1576,0.8194,-8.96,0.28,5.46,8,561
-0.5993,0.1918,0.8125,-0.7,0.14,1.19,8,408
-0.5451,0.1684,0.8403,-3.22,4.55,-2.8,44,272
-0.5851,0.1581,0.8325,0.84,8.96,-3.08,105,111
-0.5724,0.1601,0.8389,2.03,16.87,-3.57,174,34
-0.5954,0.1205,0.8408,-3.36,29.96,-3.5,257,26
-0.5876,0.1752,0.8725,6.09,49.77,-3.36,368,13
-0.5871,0.1366,0.8813,2.1,75.32,-6.86,455,20
-0.5075,0.1196,0.9658,6.72,127.68,-10.64,504,7
-0.5392,0.2796,0.9033,7.49,204.89,-13.44,477,10
-0.5495,0.1342,0.9194,-3.85,290.78,-12.67,324,15
-1.2561,-0.2518,1.0648,34.79,396.55,27.09,83,12
-2.7084,-0.204,1.0687,151.69,401.03,68.88,16,23
-1.0546,0.5695,1.1497,312.48,177.52,-4.06,6,16
0.4177,0.2743,1.4303,77.7,-129.85,-132.3,16,16
-0.0742,0.3367,0.9999,108.22,-164.08,-71.68,16,5
-0.4504,0.0644,0.8696,55.02,-235.76,18.9,11,20
-0.5685,-0.2567,0.7676,67.27,-283.5,66.22,7,14
-0.9623,-0.2396,0.875,64.54,-305.41,20.65,7,17
-1.1126,-0.2708,0.8994,95.62,-319.41,-21.35,8,8
-1.3625,0.0454,1.0214,91.28,-306.32,-11.13,3,7
-1.8237,0.2733,1.119,73.85,-294.77,17.78,4,12
-2.3082,-0.2298,0.7086,156.38,-231.21,88.06,3,11
-2.1374,-0.1645,-0.4265,55.58,-198.66,90.93,8,9
-2.3317,-0.9819,-1.5518,78.54,-20.37,21.42,3,10
-1.749,1.5826,-0.2967,-124.6,96.74,-83.51,9,12
0.3294,-0.0073,0.4538,21.98,265.37,0.7,12,513
-1.7139,-0.4675,1.4284,-73.71,147.98,-73.29,3,924
-1.0087,-0.2621,1.1131,-262.5,27.79,-28.14,5,991
-0.7462,0.3567,0.894,-11.83,2.87,-12.18,3,967
-0.6012,0.082,0.8716,5.46,5.95,-3.92,9,885
-0.6056,0.1469,0.8242,2.17,2.45,0.49,10,729
-0.6046,0.1342,0.8203,-3.85,-3.29,-0.91,0,539
-0.5797,0.1708,0.8379,-9.24,-0.07,-4.55,25,376
-0.5739,0.1454,0.8359,-8.33,4.2,-6.02,81,199
-0.5754,0.1469,0.8433,-2.17,10.08,-8.61,166,50
-0.588,0.1205,0.8462,4.55,20.02,-8.05,281,32
-0.5636,0.124,0.8682,12.04,35.28,-6.3,379,17
-0.5344,0.1615,0.9272,-4.48,67.06,-11.76,505,20
-0.4929,0.1693,0.9955,-1.82,123.06,-13.23,575,13
-0.5183,0.2313,0.9448,0.91,186.06,-13.79,628,15
-0.4382,0.3704,0.956,1.26,280.35,-36.47,578,3
-0.9345,0.1108,1.0521,-67.2,396.2,-53.76,241,9
-1.9183,0.304,1.1214,21.63,451.92,-36.26,18,14
-2.3356,0.182,1.4674,155.12,265.51,-68.25,15,12
-1.1058,0.5646,2.2023,65.03,-117.46,-86.94,12,7
0.122,0.1889,1.0214,2.59,-140.63,-77,10,12
-0.3401,0.4153,0.8623,59.78,-225.12,27.86,20,9
-0.6695,-0.0151,0.7574,58.87,-279.37,90.86,17,7
-0.8189,-0.0669,0.8286,52.01,-294.91,78.54,10,6
-1.201,-0.1078,0.873,107.24,-304.92,54.32,14,7
-1.3957,0.2318,1.0155,68.46,-297.15,43.4,3,3
-1.709,0.2118,1.1766,65.03,-279.02,67.41,7,10
-2.4263,-0.1025,0.8882,114.87,-271.53,118.02,7,9
-2.1169,-0.4792,-0.3465,99.19,-223.44,120.96,7,11
-2.2023,-1.0668,-1.5689,95.97,-36.12,63,10,9
-2.8592,-0.6295,-0.6324,-356.65,139.86,-59.5,10,161
-2.3492,0.0961,1.5343,-58.94,292.04,-34.37,5,760
-1.3459,0.5363,0.487,74.69,150.43,-58.38,3,1015
-0.7349,-0.5549,0.5339,-201.81,17.64,-29.47,10,999
-0.6344,0.568,0.8228,7.07,3.15,-13.51,6,928
-0.6334,0.1166,0.8306,21.77,3.15,-5.46,10,788
-0.6149,0.1566,0.8286,-2.17,0.98,-0.14,10,590
-0.6022,0.1659,0.8135,-6.72,2.87,-2.8,32,398
-0.589,0.1493,0.8203,-7.28,5.6,-4.97,74,175
-0.5963,0.1362,0.815,-4.76,8.26,-6.58,132,43
-0.6056,0.1376,0.8179,1.4,12.39,-9.66,258,25
-0.6105,0.1035,0.8403,5.25,19.53,-10.85,374,16
-0.5646,0.1532,0.8804,-1.47,40.81,-12.04,483,3
-0.5344,0.1308,0.9609,0.49,76.86,-12.04,584,3
-0.5134,0.0791,0.9965,-3.29,138.81,-13.09,651,7
-0.4856,0.3113,0.9877,-5.46,213.78,-25.69,695,12
-0.3782,0.408,1.0121,-41.44,325.92,-70.63,531,12
-1.5899,-0.3479,1.038,-82.6,436.94,-71.82,150,16
